Sample, Time, ACCX, ACCY, ACCZ, MAGX, MAGY, MAGZ, GYRX, GYRY, GYRZ
0,45120.974000,-2.447,33.391,253.035,-36.234,-239.235,491.637,-0.500,0.760,0.780
1,45120.999000,-1.468,33.391,251.058,-35.281,-240.213,493.590,-1.500,0.760,-0.220
2,45121.24000,-0.489,33.391,253.035,-39.203,-241.146,494.645,0.500,1.760,-0.220
3,45121.39000,-0.489,33.391,252.046,-38.234,-238.251,493.640,-1.500,0.760,-1.220
4,45121.64000,-1.468,32.379,253.035,-34.293,-243.125,494.560,-0.500,0.760,0.780
5,45121.84000,-1.468,33.391,252.046,-36.303,-239.239,495.576,-0.500,0.760,-0.220
6,45121.106000,-1.468,32.379,254.023,-32.362,-242.176,495.509,-2.500,0.760,0.780
7,45121.136000,-1.468,33.391,252.046,-37.238,-240.195,493.624,0.500,-1.240,0.780
8,45121.151000,-0.489,33.391,251.058,-37.203,-242.129,492.642,-1.500,0.760,-0.220
9,45121.169000,0.489,33.391,253.035,-36.251,-241.171,493.608,-0.500,0.760,0.780
10,45121.191000,-1.468,33.391,253.035,-32.284,-243.140,491.571,0.500,0.760,-0.220
11,45121.214000,-0.489,32.379,254.023,-30.353,-244.127,493.507,-3.500,0.760,1.780
12,45121.236000,-1.468,33.391,253.035,-37.220,-242.130,493.626,-2.500,0.760,0.780
13,45121.274000,-0.489,33.391,253.035,-34.285,-242.157,493.574,0.500,0.760,-0.220
14,45121.304000,-1.468,33.391,253.035,-35.238,-239.243,490.635,-0.500,0.760,-0.220
15,45121.314000,0.489,34.403,253.035,-39.230,-240.179,495.629,-2.500,0.760,-0.220
16,45121.314000,-1.468,33.391,253.035,-29.392,-242.201,493.488,-1.500,1.760,0.780
17,45121.339000,-0.489,33.391,254.023,-35.228,-244.082,492.609,-1.500,0.760,-0.220
18,45121.356000,-3.426,33.391,251.058,-33.289,-242.165,492.572,-2.500,0.760,-0.220
19,45121.374000,-1.468,33.391,253.035,-34.267,-242.156,492.590,0.500,1.760,-0.220
20,45121.396000,-2.447,33.391,253.035,-35.281,-240.213,493.590,0.500,0.760,-0.220
21,45121.414000,-1.468,33.391,252.046,-37.195,-241.161,491.656,-1.500,-0.240,0.780
22,45121.439000,-1.468,33.391,252.046,-28.423,-241.243,493.470,-1.500,1.760,-0.220
23,45121.461000,-0.489,34.403,253.035,-35.351,-238.281,496.542,-0.500,0.760,-1.220
24,45121.479000,-1.468,33.391,253.035,-41.082,-244.027,491.728,-2.500,0.760,0.780
25,45121.501000,-2.447,33.391,253.035,-32.337,-241.207,493.539,-1.500,0.760,-1.220
26,45121.519000,-0.489,33.391,254.023,-38.234,-238.251,493.640,0.500,0.760,0.780
27,45121.541000,-2.447,34.403,253.035,-36.207,-244.073,492.626,-3.500,0.760,0.780
28,45121.560000,-1.468,33.391,253.035,-34.276,-243.124,493.575,-1.500,1.760,-0.220
29,45121.569000,-1.468,33.391,252.046,-35.316,-240.215,495.559,0.500,1.760,0.780
30,45121.588000,-2.447,32.379,253.035,-41.160,-241.128,494.679,-1.500,0.760,-0.220
31,45121.618000,-0.489,33.391,255.012,-37.246,-241.163,494.610,-2.500,0.760,-0.220
32,45121.633000,-1.468,33.391,254.023,-41.187,-240.161,495.663,0.500,0.760,-0.220
33,45121.657000,-1.468,32.379,253.035,-37.247,-239.228,493.623,-1.500,0.760,0.780
34,45121.680000,-1.468,33.391,253.035,-34.267,-242.156,492.590,-2.500,-0.240,0.780
35,45121.703000,-1.468,33.391,254.023,-41.187,-240.161,495.663,0.500,0.760,1.780
36,45121.722000,-0.489,32.379,252.046,-36.251,-241.171,493.608,-1.500,0.760,0.780
37,45121.754000,-1.468,33.391,254.023,-33.289,-242.165,492.572,-2.500,0.760,1.780
38,45121.774000,0.489,32.379,252.046,-30.362,-243.160,493.506,-0.500,-0.240,0.780
39,45121.809000,-1.468,33.391,254.023,-41.117,-240.158,491.724,-2.500,0.760,0.780
40,45121.819000,-1.468,33.391,252.046,-32.389,-241.210,496.493,-0.500,1.760,-0.220
41,45121.834000,-1.468,34.403,254.023,-35.264,-238.276,491.618,-0.500,0.760,0.780
42,45121.849000,-0.489,34.403,252.046,-37.238,-240.195,493.624,-3.500,0.760,0.780
43,45121.869000,-1.468,32.379,252.046,-33.332,-241.199,494.541,-1.500,0.760,-1.220
44,45121.891000,-0.489,33.391,253.035,-35.342,-237.313,495.556,-1.500,0.760,0.780
45,45121.914000,-1.468,33.391,253.035,-34.198,-244.088,489.637,-4.500,1.760,0.780
46,45121.921000,-1.468,33.391,254.023,-36.234,-239.235,491.637,-1.500,0.760,0.780
47,45121.946000,-1.468,33.391,255.012,-33.341,-242.167,495.527,-0.500,-0.240,-0.220
48,45121.969000,-0.489,33.391,253.035,-40.164,-243.072,494.664,-2.500,-0.240,-0.220
49,45121.994000,-1.468,32.379,252.046,-35.298,-242.150,495.561,-1.500,0.760,0.780
50,45122.14000,-2.447,34.403,253.035,-36.312,-236.335,494.588,-1.500,0.760,0.780
51,45122.34000,-0.489,33.391,254.023,-34.267,-242.156,492.590,1.500,0.760,0.780
52,45122.54000,-2.447,35.415,253.035,-35.281,-240.213,493.590,-4.500,0.760,0.780
53,45122.76000,-1.468,32.379,253.035,-34.251,-240.219,490.618,-1.500,0.760,-0.220
54,45122.106000,-1.468,34.403,253.035,-34.347,-237.321,494.554,1.500,0.760,-0.220
55,45122.121000,-0.489,33.391,253.035,-33.341,-242.167,495.527,-0.500,1.760,-0.220
56,45122.144000,-1.468,33.391,253.035,-33.341,-240.232,494.540,-2.500,0.760,0.780
57,45122.164000,-1.468,33.391,253.035,-40.191,-240.169,494.661,2.500,-0.240,-1.220
58,45122.181000,-0.489,32.379,253.035,-33.332,-243.135,495.528,-4.500,0.760,0.780
59,45122.204000,-1.468,32.379,253.035,-39.248,-236.309,494.640,-1.500,2.760,-0.220
60,45122.244000,-1.468,33.391,252.046,-41.153,-238.224,492.707,6.500,4.760,0.780
61,45122.244000,-2.447,36.427,252.046,-32.320,-239.270,491.567,-2.500,-0.240,-0.220
62,45122.270000,-0.489,33.391,252.046,-33.315,-241.198,493.556,-8.500,-2.240,-1.220
63,45122.285000,-2.447,32.379,252.046,-39.160,-240.175,491.690,-11.500,-6.240,-0.220
64,45122.308000,-1.468,34.403,252.046,-34.285,-242.157,493.574,-12.500,-8.240,-2.220
65,45122.330000,-1.468,33.391,252.046,-35.282,-238.277,492.603,-16.500,-12.240,-3.220
66,45122.347000,0.489,32.379,253.035,-38.199,-240.185,492.657,-30.500,-14.240,-6.220
67,45122.365000,-0.489,31.368,254.023,-37.220,-242.130,493.626,-15.500,-2.240,-1.220
68,45122.382000,-0.489,33.391,253.035,-39.195,-240.177,493.659,12.500,9.760,1.780
69,45122.400000,-1.468,31.368,253.035,-40.165,-239.200,492.691,-4.500,18.760,8.780
70,45122.425000,-1.468,34.403,252.046,-32.345,-242.175,494.525,-13.500,17.760,5.780
71,45122.445000,-1.468,33.391,253.035,-35.290,-239.246,493.589,5.500,11.760,10.780
72,45122.467000,-2.447,35.415,252.046,-37.203,-242.129,492.642,-12.500,-1.240,6.780
73,45122.487000,-0.489,30.356,254.023,-32.354,-241.208,494.524,-17.500,-3.240,4.780
74,45122.513000,-0.489,26.308,253.035,-32.354,-239.272,493.537,-34.500,-8.240,10.780
75,45122.527000,-2.447,35.415,252.046,-30.371,-240.256,492.519,-7.500,-17.240,11.780
76,45122.547000,-0.489,40.474,252.046,-37.255,-240.196,494.609,61.500,-12.240,10.780
77,45122.563000,-1.468,31.368,256.988,-35.298,-240.214,494.575,-35.500,-2.240,5.780
78,45122.578000,-0.489,31.368,251.058,-38.200,-238.249,491.670,-37.500,-4.240,9.780
79,45122.628000,-1.468,32.379,252.046,-33.350,-239.264,494.539,3.500,-3.240,5.780
80,45122.642000,-4.405,31.368,255.012,-36.224,-244.074,493.611,15.500,-17.240,11.780
81,45122.657000,-11.258,31.368,255.012,-32.433,-236.373,496.488,-65.500,-10.240,71.780
82,45122.672000,-13.216,44.522,248.093,-36.277,-240.205,494.592,46.500,-1.240,193.780
83,45122.697000,-13.216,52.617,254.023,-40.191,-238.234,493.674,91.500,22.760,289.780
84,45122.715000,-14.195,66.783,248.093,-38.225,-239.219,493.641,83.500,50.760,397.780
85,45122.733000,-11.258,64.759,250.069,-47.993,-241.065,493.816,-6.500,76.760,482.780
86,45122.748000,-11.258,50.593,253.035,-51.880,-241.995,492.901,-83.500,68.760,568.780
87,45122.772000,-10.279,49.581,249.081,-53.838,-240.042,491.949,-48.500,59.760,650.780
88,45122.795000,-9.300,33.391,255.012,-54.799,-240.032,490.982,-31.500,65.760,691.780
89,45122.815000,-7.342,35.415,253.035,-62.661,-241.899,494.076,-36.500,75.760,775.780
90,45122.840000,-7.342,41.486,250.069,-70.437,-243.760,492.247,47.500,98.760,852.780
91,45122.867000,-3.426,32.379,256.988,-69.458,-243.769,492.230,4.500,112.760,901.780
92,45122.873000,1.468,25.296,254.023,-80.248,-242.705,493.404,-90.500,103.760,896.780
93,45122.897000,-2.447,18.213,252.046,-87.107,-239.739,492.537,19.500,99.760,877.780
94,45122.918000,-3.426,30.356,255.012,-93.876,-246.448,491.680,36.500,88.760,868.780
95,45122.938000,-2.447,25.296,255.012,-93.955,-241.613,493.645,-92.500,91.760,871.780
96,45122.960000,-3.426,20.237,253.035,-105.768,-237.639,495.818,-68.500,83.760,872.780
97,45122.980000,-5.384,30.356,254.023,-102.754,-238.629,491.828,22.500,90.760,854.780
98,45123.10000,-4.405,19.225,255.012,-106.651,-238.592,490.913,-43.500,91.760,891.780
99,45123.45000,-7.342,24.285,253.035,-117.475,-237.530,494.056,-0.500,100.760,906.780
100,45123.55000,-1.468,40.474,251.058,-119.345,-239.443,490.154,66.500,118.760,942.780
101,45123.70000,0.489,20.237,256.988,-130.170,-234.509,491.324,-49.500,112.760,928.780
102,45123.93000,0.489,33.391,250.069,-132.101,-233.522,489.388,-15.500,101.760,902.780
103,45123.107000,-1.468,27.320,254.023,-139.012,-232.495,492.463,-55.500,78.760,875.780
104,45123.130000,-2.447,27.320,253.035,-146.770,-232.420,488.662,-57.500,79.760,911.780
105,45123.152000,-2.447,29.344,253.035,-142.891,-230.522,489.576,20.500,97.760,906.780
106,45123.167000,10.279,20.237,254.023,-157.630,-227.488,491.802,-12.500,103.760,917.780
107,45123.190000,20.069,-1.012,259.954,-154.687,-224.611,489.777,-107.500,77.760,768.780
108,45123.207000,17.132,3.036,256.000,-160.593,-222.623,490.864,-219.500,27.760,693.780
109,45123.225000,-6.363,18.213,253.035,-158.618,-222.640,489.845,26.500,15.760,691.780
110,45123.240000,-14.195,48.569,246.116,-170.388,-217.695,489.063,291.500,41.760,742.780
111,45123.265000,-13.216,46.545,260.942,-176.198,-218.606,486.213,162.500,49.760,741.780
112,45123.287000,-8.321,62.735,249.081,-182.138,-216.621,489.269,-40.500,90.760,802.780
113,45123.312000,-3.426,55.652,245.127,-187.084,-210.772,489.350,-178.500,115.760,790.780
114,45123.335000,6.363,32.379,256.988,-188.115,-208.831,491.335,-292.500,100.760,834.780
115,45123.376000,12.237,3.036,258.965,-183.197,-207.906,489.278,-68.500,99.760,870.780
116,45123.376000,11.258,16.190,250.069,-188.107,-205.926,489.362,-4.500,97.760,885.780
117,45123.398000,-4.405,14.166,258.965,-197.910,-201.967,488.547,137.500,107.760,849.780
118,45123.408000,-15.174,43.510,252.046,-202.750,-203.855,486.666,91.500,129.760,878.780
119,45123.437000,-12.237,26.308,255.012,-209.636,-196.052,484.810,87.500,161.760,900.780
120,45123.452000,-2.447,46.545,251.058,-217.473,-196.949,485.934,32.500,158.760,855.780
121,45123.477000,5.384,37.439,254.023,-217.500,-194.047,485.931,-98.500,104.760,743.780
122,45123.495000,0.489,25.296,250.069,-220.435,-192.084,484.996,-193.500,30.760,682.780
123,45123.515000,16.153,23.273,259.954,-217.501,-188.239,482.971,17.500,43.760,544.780
124,45123.540000,2.447,15.178,253.035,-217.588,-186.308,486.908,-185.500,-7.240,449.780
125,45123.555000,-0.489,21.249,248.093,-220.567,-183.381,487.941,-157.500,4.760,473.780
126,45123.570000,1.468,26.308,256.988,-230.371,-179.421,487.126,134.500,26.760,556.780
127,45123.595000,0.489,26.308,257.977,-227.461,-180.417,489.044,-12.500,33.760,586.780
128,45123.615000,0.489,13.154,254.023,-227.488,-177.515,489.041,-215.500,52.760,652.780
129,45123.635000,-0.489,25.296,246.116,-232.425,-172.633,489.123,103.500,55.760,702.780
130,45123.659000,-2.447,33.391,256.988,-244.115,-170.588,485.390,189.500,72.760,711.780
131,45123.679000,-9.300,25.296,255.012,-240.263,-165.787,486.300,-13.500,73.760,758.780
132,45123.704000,-4.405,32.379,248.093,-249.105,-161.838,486.452,104.500,95.760,829.780
133,45123.721000,8.321,23.273,262.919,-249.097,-158.934,484.480,124.500,155.760,966.780
134,45123.746000,20.069,33.391,253.035,-253.912,-157.917,479.642,-120.500,135.760,970.780
135,45123.771000,8.321,11.130,253.035,-257.976,-147.243,482.654,-148.500,83.760,954.780
136,45123.789000,2.447,22.261,255.012,-258.971,-147.235,483.656,23.500,79.760,1007.780
137,45123.811000,-0.489,17.202,258.965,-260.922,-138.505,478.758,-34.500,109.760,1101.780
138,45123.829000,3.426,26.308,251.058,-271.773,-132.605,480.912,-25.500,113.760,1150.780
139,45123.851000,3.426,21.249,255.012,-278.667,-127.706,481.029,26.500,131.760,1229.780
140,45123.871000,3.426,29.344,253.035,-276.747,-119.982,479.017,9.500,137.760,1278.780
141,45123.891000,3.426,25.296,254.023,-282.645,-113.155,477.144,6.500,155.760,1349.780
142,45123.906000,8.321,26.308,254.023,-281.756,-103.490,477.117,-2.500,149.760,1374.780
143,45123.931000,12.237,17.202,255.012,-284.736,-98.626,477.164,-4.500,159.760,1399.780
144,45123.951000,14.195,28.332,254.023,-292.636,-86.944,475.321,27.500,148.760,1370.780
145,45123.971000,11.258,27.320,255.012,-293.633,-83.065,474.350,-77.500,132.760,1322.780
146,45123.989000,6.363,29.344,252.046,-292.777,-75.338,477.279,-55.500,128.760,1313.780
147,45124.9000,6.363,32.379,254.023,-300.589,-69.458,473.473,-2.500,130.760,1316.780
148,45124.34000,8.321,35.415,253.035,-300.722,-58.819,475.431,-11.500,127.760,1283.780
149,45124.56000,7.342,31.368,253.035,-299.737,-52.052,471.468,-57.500,122.760,1249.780
150,45124.81000,5.384,33.391,253.035,-303.659,-51.049,471.536,-9.500,119.760,1195.780
151,45124.96000,4.405,31.368,252.046,-308.633,-36.490,468.654,35.500,128.760,1146.780
152,45124.116000,2.447,36.427,253.035,-301.820,-30.747,467.542,13.500,124.760,1083.780
153,45124.145000,-0.489,36.427,253.035,-309.719,-24.872,468.660,-33.500,109.760,1024.780
154,45124.155000,-4.405,33.391,252.046,-305.849,-22.007,469.572,-59.500,90.760,1009.780
155,45124.179000,-3.426,26.308,253.035,-306.908,-11.356,468.594,-34.500,93.760,1031.780
156,45124.199000,4.405,29.344,255.012,-309.905,-6.493,469.626,-6.500,104.760,1070.780
157,45124.214000,1.468,26.308,253.035,-300.147,-3.680,469.450,-27.500,111.760,1124.780
158,45124.229000,-0.489,38.451,250.069,-305.164,9.909,469.523,-8.500,100.760,1104.780
159,45124.274000,-13.216,26.308,255.012,-310.057,13.825,467.636,-17.500,120.760,1167.780
160,45124.289000,2.447,15.178,255.012,-311.116,22.540,467.644,38.500,140.760,1258.780
161,45124.311000,8.321,33.391,255.012,-301.332,26.323,465.498,72.500,154.760,1321.780
162,45124.324000,9.300,30.356,256.988,-302.434,37.940,466.488,-30.500,145.760,1309.780
163,45124.341000,1.468,28.332,253.035,-301.456,39.866,465.484,-85.500,133.760,1285.780
164,45124.361000,4.405,36.427,249.081,-296.654,53.368,463.415,-16.500,125.760,1294.780
165,45124.384000,4.405,31.368,256.000,-305.593,64.087,465.529,26.500,129.760,1262.780
166,45124.391000,-0.489,24.285,252.046,-298.779,67.894,465.404,-106.500,118.760,1267.780
167,45124.426000,2.447,27.320,249.081,-290.045,79.425,463.267,42.500,132.760,1299.780
168,45124.444000,6.363,31.368,256.988,-294.055,84.295,466.286,16.500,130.760,1276.780
169,45124.464000,7.342,27.320,254.023,-280.401,90.943,465.052,-75.500,123.760,1250.780
170,45124.484000,11.258,32.379,251.058,-283.425,98.708,466.081,-16.500,100.760,1188.780
171,45124.509000,1.468,27.320,255.012,-283.487,105.480,466.074,49.500,133.760,1179.780
172,45124.524000,8.321,33.391,253.035,-277.600,107.363,463.999,-19.500,116.760,1160.780
173,45124.541000,3.426,24.285,256.000,-268.908,115.988,465.804,-33.500,123.760,1172.780
174,45124.555000,9.300,34.403,250.069,-271.820,124.727,459.938,67.500,133.760,1158.780
175,45124.585000,5.384,27.320,257.977,-272.886,128.603,462.906,-8.500,125.760,1124.780
176,45124.615000,3.426,35.415,251.058,-255.361,134.245,464.558,-49.500,111.760,1101.780
177,45124.635000,2.447,30.356,252.046,-261.250,138.169,463.673,32.500,112.760,1071.780
178,45124.665000,7.342,36.427,255.012,-256.376,143.931,461.612,-9.500,112.760,1066.780
179,45124.675000,5.384,28.332,254.023,-246.670,148.677,463.403,-30.500,111.760,1032.780
180,45124.690000,4.405,36.427,251.058,-247.736,152.553,466.371,2.500,104.760,1015.780
181,45124.707000,7.342,31.368,255.012,-244.793,155.430,464.347,15.500,106.760,989.780
182,45124.732000,7.342,30.356,253.035,-237.080,164.064,466.169,-56.500,91.760,943.780
183,45124.752000,5.384,30.356,251.058,-235.168,170.819,465.143,-58.500,84.760,915.780
184,45124.772000,3.426,28.332,253.035,-233.229,172.736,465.106,-12.500,82.760,887.780
185,45124.792000,2.447,31.368,255.012,-229.289,173.669,463.066,-5.500,84.760,865.780
186,45124.812000,3.426,30.356,254.023,-219.582,174.544,466.832,-9.500,82.760,868.780
187,45124.832000,0.489,27.320,253.035,-222.623,182.308,468.845,-3.500,87.760,856.780
188,45124.857000,4.405,33.391,253.035,-216.752,182.254,468.741,-5.500,77.760,835.780
189,45124.865000,5.384,30.356,254.023,-214.867,191.912,467.712,-35.500,81.760,827.780
190,45124.895000,-0.489,31.368,253.035,-210.944,190.909,467.644,-2.500,80.760,816.780
191,45124.914000,3.426,28.332,255.012,-204.113,192.781,467.521,11.500,86.760,822.780
192,45124.935000,3.426,29.344,254.023,-199.318,201.442,468.410,22.500,89.760,829.780
193,45124.960000,4.405,33.391,254.023,-203.223,200.511,468.481,6.500,99.760,844.780
194,45124.985000,3.426,31.368,252.046,-183.679,201.299,469.118,-14.500,92.760,851.780
195,45125.0,4.405,29.344,254.023,-191.543,207.176,468.266,15.500,100.760,865.780
196,45125.40000,1.468,29.344,253.035,-183.759,210.006,469.110,3.500,96.760,903.780
197,45125.55000,3.426,30.356,254.023,-177.923,211.886,469.989,-15.500,102.760,909.780
198,45125.67000,4.405,34.403,253.035,-175.006,215.730,468.948,-16.500,94.760,923.780
199,45125.82000,1.468,26.308,254.023,-173.075,216.679,469.897,-31.500,95.760,960.780
200,45125.105000,7.342,26.308,254.023,-165.273,217.574,470.743,-34.500,100.760,995.780
201,45125.130000,7.342,23.273,254.023,-151.697,221.314,475.420,-21.500,101.760,1037.780
202,45125.147000,6.363,22.261,254.023,-155.585,222.319,473.519,-16.500,109.760,1076.780
203,45125.170000,5.384,28.332,253.035,-137.064,226.018,475.156,-6.500,109.760,1104.780
204,45125.187000,3.426,28.332,254.023,-143.040,231.872,478.208,-4.500,119.760,1125.780
205,45125.195000,-1.468,28.332,252.046,-130.224,228.859,474.047,-8.500,119.760,1167.780
206,45125.215000,0.489,31.368,254.023,-124.466,233.638,477.877,-8.500,124.760,1179.780
207,45125.250000,-2.447,32.379,253.035,-119.618,238.431,477.786,-2.500,120.760,1230.780
208,45125.270000,-0.489,29.344,255.012,-100.048,234.381,479.413,18.500,141.760,1298.780
209,45125.305000,-0.489,28.332,254.023,-101.062,238.260,479.427,14.500,147.760,1369.780
210,45125.320000,-1.468,31.368,253.035,-91.338,239.135,482.207,-42.500,143.760,1402.780
211,45125.332000,1.468,32.379,253.035,-86.455,241.994,481.133,8.500,155.760,1455.780
212,45125.350000,-1.468,35.415,253.035,-77.648,239.978,481.964,-1.500,157.760,1482.780
213,45125.374000,1.468,33.391,253.035,-70.903,243.782,485.778,29.500,164.760,1484.780
214,45125.396000,-2.447,37.439,252.046,-65.041,244.696,485.673,47.500,166.760,1482.780
215,45125.425000,-6.363,33.391,253.035,-55.204,242.674,483.533,-10.500,166.760,1485.780
216,45125.432000,-9.300,38.451,251.058,-39.616,240.592,488.181,-81.500,146.760,1485.780
217,45125.455000,0.489,28.332,254.023,-31.806,242.455,488.041,-18.500,151.760,1524.780
218,45125.472000,-0.489,31.368,254.023,-22.011,237.527,489.842,-19.500,146.760,1546.780
219,45125.492000,-0.489,25.296,252.046,-10.227,238.391,486.680,-38.500,160.760,1559.780
220,45125.533000,-1.468,29.344,253.035,-8.329,235.466,491.572,4.500,157.760,1564.780
221,45125.533000,0.489,30.356,253.035,4.461,231.483,489.381,-30.500,155.760,1590.780
222,45125.554000,-4.405,25.296,253.035,17.165,229.430,491.128,-32.500,168.760,1615.780
223,45125.581000,-0.489,31.368,254.023,23.002,227.439,493.980,5.500,167.760,1625.780
224,45125.599000,-1.468,29.344,254.023,32.840,221.546,493.813,-14.500,170.760,1629.780
225,45125.616000,4.405,31.368,253.035,40.721,217.606,492.694,-23.500,172.760,1617.780
226,45125.639000,1.468,24.285,254.023,49.545,215.591,492.540,-19.500,166.760,1597.780
227,45125.659000,1.468,36.427,252.046,58.336,207.767,497.316,2.500,161.760,1591.780
228,45125.684000,3.426,28.332,253.035,69.144,202.832,497.130,-29.500,169.760,1596.780
229,45125.699000,1.468,31.368,254.023,74.055,198.917,498.033,-20.500,173.760,1622.780
230,45125.726000,4.405,28.332,256.000,80.915,192.080,500.873,-4.500,165.760,1614.780
231,45125.749000,0.489,29.344,253.035,85.851,187.198,500.791,-8.500,172.760,1614.780
232,45125.766000,2.447,29.344,255.012,94.694,181.313,501.626,8.500,180.760,1604.780
233,45125.786000,-0.489,30.356,254.023,110.430,170.528,502.344,-30.500,172.760,1596.780
234,45125.804000,4.405,27.320,255.012,110.483,166.660,501.364,-37.500,167.760,1558.780
235,45125.826000,2.447,27.320,253.035,119.274,158.835,506.139,-28.500,162.760,1553.780
236,45125.844000,2.447,30.356,254.023,127.173,152.961,505.022,-17.500,159.760,1572.780
237,45125.869000,4.405,22.261,253.035,128.232,144.245,505.014,-25.500,166.760,1560.780
238,45125.896000,5.384,29.344,254.023,139.005,137.373,507.784,-1.500,176.760,1580.780
239,45125.911000,5.384,23.273,256.000,142.047,127.673,506.758,-16.500,172.760,1585.780
240,45125.941000,9.300,22.261,256.000,140.047,128.656,508.761,-30.500,176.760,1569.780
241,45125.956000,11.258,21.249,255.012,146.077,113.125,507.688,76.500,188.760,1573.780
242,45125.986000,9.300,28.332,255.012,150.037,102.445,510.583,75.500,204.760,1498.780
243,45126.16000,4.405,39.462,252.046,154.031,95.639,509.536,-72.500,162.760,1403.780
244,45126.20000,-3.426,30.356,251.058,157.028,88.840,509.491,-55.500,147.760,1309.780
245,45126.25000,-1.468,33.391,255.012,163.950,79.103,510.365,27.500,133.760,1287.780
246,45126.50000,-4.405,30.356,254.023,163.016,72.339,511.374,29.500,155.760,1235.780
247,45126.70000,0.489,37.439,252.046,163.017,70.403,512.360,-76.500,121.760,1181.780
248,45126.95000,4.405,24.285,253.035,165.097,60.713,510.366,-39.500,122.760,1155.780
249,45126.112000,4.405,36.427,252.046,168.059,57.785,510.317,41.500,139.760,1121.780
250,45126.135000,-0.489,27.320,256.988,171.985,47.103,515.182,-91.500,104.760,1063.780
251,45126.160000,-2.447,36.427,250.069,169.180,42.297,510.315,10.500,120.760,1045.780
252,45126.176000,0.489,27.320,254.023,171.199,35.508,510.287,-35.500,110.760,1005.780
253,45126.191000,3.426,22.261,253.035,174.181,24.837,513.201,-87.500,91.760,998.780
254,45126.212000,0.489,30.356,254.023,176.190,22.886,511.198,8.500,99.760,1002.780
255,45126.232000,0.489,33.391,253.035,176.156,20.948,514.155,55.500,124.760,1032.780
256,45126.252000,-1.468,33.391,255.012,179.206,14.153,511.155,-18.500,121.760,999.780
257,45126.277000,-3.426,30.356,250.069,170.454,4.557,513.290,-83.500,109.760,1004.780
258,45126.297000,-2.447,27.320,254.023,175.444,-4.194,512.228,-44.500,109.760,1060.780
259,45126.322000,7.342,27.320,255.012,171.539,-7.061,513.285,44.500,125.760,1124.780
260,45126.345000,1.468,31.368,249.081,171.688,-15.764,509.354,-10.500,126.760,1158.780
261,45126.362000,11.258,31.368,253.035,172.607,-18.680,514.264,92.500,175.760,1136.780
262,45126.390000,8.321,30.356,256.000,175.666,-30.314,513.239,-26.500,131.760,1031.780
263,45126.412000,-4.405,30.356,249.081,174.697,-31.273,513.257,-76.500,88.760,961.780
264,45126.431000,-13.216,48.569,250.069,175.755,-39.988,513.249,29.500,99.760,936.780
265,45126.446000,-6.363,41.486,251.058,172.856,-43.831,513.304,46.500,108.760,996.780
266,45126.464000,7.342,21.249,256.000,167.134,-54.417,510.465,-68.500,136.760,1070.780
267,45126.480000,11.258,25.296,253.035,169.153,-59.270,509.450,-23.500,132.760,1088.780
268,45126.506000,-2.447,31.368,254.023,169.172,-65.077,511.425,5.500,126.760,1059.780
269,45126.529000,-3.426,33.391,251.058,160.376,-71.771,514.542,-85.500,105.760,1066.780
270,45126.536000,2.447,21.249,256.000,164.404,-76.640,510.539,-33.500,122.760,1115.780
271,45126.561000,6.363,29.344,254.023,161.487,-82.420,512.566,0.500,122.760,1122.780
272,45126.583000,-0.489,30.356,253.035,155.678,-89.138,512.677,4.500,121.760,1072.780
273,45126.604000,-9.300,33.391,252.046,158.746,-99.804,510.666,-74.500,108.760,1021.780
274,45126.626000,-11.258,32.379,252.046,157.759,-100.764,511.669,-52.500,95.760,1049.780
275,45126.646000,-4.405,21.249,256.000,148.071,-107.445,509.880,-28.500,120.760,1139.780
276,45126.671000,2.447,33.391,253.035,146.151,-115.168,511.891,114.500,151.760,1180.780
277,45126.686000,-3.426,43.510,253.035,144.212,-119.021,512.915,33.500,145.760,1112.780
278,45126.720000,-6.363,46.545,249.081,136.490,-126.687,511.091,36.500,116.760,1022.780
279,45126.765000,5.384,34.403,255.012,137.504,-130.566,511.078,-114.500,123.760,940.780
280,45126.765000,3.426,12.142,256.988,136.640,-137.326,508.148,-76.500,69.760,848.780
281,45126.772000,-4.405,37.439,250.069,135.680,-141.187,509.154,-69.500,63.760,827.780
282,45126.795000,-0.489,32.379,251.058,133.706,-143.106,511.160,-8.500,73.760,838.780
283,45126.817000,-4.405,32.379,257.977,128.875,-145.962,509.280,17.500,90.760,797.780
284,45126.832000,-12.237,33.391,248.093,127.041,-155.616,507.355,-48.500,74.760,837.780
285,45126.855000,-9.300,40.474,251.058,123.110,-155.582,508.409,16.500,98.760,933.780
286,45126.880000,8.321,32.379,252.046,110.426,-161.271,509.624,80.500,123.760,908.780
287,45126.897000,16.153,14.166,261.931,106.520,-160.268,508.708,-61.500,93.760,760.780
288,45126.922000,5.384,35.415,249.081,108.539,-167.057,508.680,-37.500,40.760,570.780
289,45126.937000,-15.174,38.451,252.046,107.639,-168.012,504.759,-78.500,8.760,535.780
290,45126.955000,-26.922,38.451,249.081,108.566,-171.895,509.669,-139.500,11.760,778.780
291,45126.975000,-14.195,28.332,250.069,100.774,-173.758,508.825,-68.500,62.760,864.780
292,45126.997000,15.174,24.285,256.988,100.818,-176.659,507.843,218.500,129.760,926.780
293,45127.15000,21.048,22.261,262.919,89.155,-181.387,506.086,-53.500,91.760,762.780
294,45127.46000,12.237,28.332,247.104,93.131,-186.259,505.037,-121.500,56.760,607.780
295,45127.67000,0.489,33.391,254.023,85.294,-185.220,505.174,52.500,31.760,491.780
296,45127.85000,-0.489,35.415,255.012,88.212,-185.248,506.107,-8.500,30.760,463.780
297,45127.107000,-16.153,32.379,254.023,85.276,-185.221,506.159,-181.500,21.760,540.780
298,45127.125000,-5.384,36.427,247.104,82.447,-194.868,505.236,165.500,57.760,614.780
299,45127.142000,6.363,29.344,257.977,79.450,-191.941,507.255,96.500,67.760,587.780
300,45127.160000,6.363,28.332,255.012,77.520,-194.825,507.292,-63.500,53.760,589.780
301,45127.190000,-0.489,32.379,250.069,74.629,-197.700,506.362,-28.500,52.760,555.780
302,45127.210000,-8.321,38.451,251.058,62.939,-197.590,503.616,85.500,53.760,560.780
303,45127.245000,0.489,36.427,254.023,64.941,-204.381,504.573,-33.500,59.760,579.780
304,45127.245000,4.405,45.534,249.081,60.999,-199.507,503.652,-55.500,1.760,515.780
305,45127.275000,-3.426,28.332,256.000,66.828,-202.467,507.490,-75.500,11.760,500.780
306,45127.287000,3.426,6.071,259.954,63.962,-204.372,504.590,-59.500,52.760,554.780
307,45127.310000,-5.384,28.332,249.081,51.268,-207.158,504.818,-6.500,41.760,649.780
308,45127.327000,1.468,12.142,257.977,53.226,-209.112,505.770,53.500,99.760,712.780
309,45127.350000,3.426,31.368,255.012,43.520,-211.922,502.992,100.500,111.760,800.780
310,45127.358000,2.447,46.545,248.093,38.645,-213.813,503.080,108.500,122.760,725.780
311,45127.392000,1.468,47.557,251.058,44.507,-214.834,503.962,-128.500,48.760,627.780
312,45127.415000,0.489,37.439,254.023,35.771,-218.622,502.152,-174.500,35.760,644.780
313,45127.437000,-0.489,12.142,254.023,25.961,-219.502,504.296,-19.500,75.760,721.780
314,45127.455000,4.405,20.237,250.069,22.099,-221.400,502.397,115.500,98.760,809.780
315,45127.472000,7.342,23.273,257.977,23.086,-220.440,501.394,8.500,105.760,813.780
316,45127.490000,2.447,37.439,255.012,16.264,-225.216,502.505,-16.500,101.760,823.780
317,45127.517000,-6.363,32.379,250.069,12.333,-227.117,504.546,-67.500,98.760,865.780
318,45127.527000,-5.384,25.296,255.012,7.545,-229.002,499.710,-9.500,94.760,960.780
319,45127.557000,4.405,29.344,256.000,-3.253,-230.842,502.857,49.500,123.760,1032.780
320,45127.587000,5.384,32.379,255.012,-12.033,-231.729,502.029,-3.500,129.760,1046.780
321,45127.602000,1.468,38.451,251.058,-14.864,-235.568,498.145,40.500,139.760,1030.780
322,45127.622000,-4.405,39.462,252.046,-25.662,-233.536,499.319,18.500,127.760,1002.780
323,45127.640000,-4.405,34.403,253.035,-33.481,-234.432,499.458,-63.500,125.760,1015.780
324,45127.660000,-2.447,32.379,250.069,-28.563,-235.443,498.388,-43.500,122.760,1036.780
325,45127.675000,0.489,27.320,253.035,-39.274,-237.278,496.610,14.500,125.760,1063.780
326,45127.702000,9.300,15.178,256.000,-47.084,-239.142,496.751,-64.500,121.760,1108.780
327,45127.727000,9.300,23.273,253.035,-48.071,-240.101,497.754,-58.500,117.760,1157.780
328,45127.745000,1.468,24.285,254.023,-60.765,-239.016,496.008,29.500,122.760,1198.780
329,45127.762000,-3.426,40.474,251.058,-71.442,-240.849,492.261,26.500,139.760,1220.780
330,45127.787000,-5.384,41.486,254.023,-76.360,-241.774,494.318,78.500,169.760,1226.780
331,45127.800000,-1.468,42.498,252.046,-86.119,-242.651,493.508,28.500,161.760,1200.780
332,45127.825000,0.489,37.439,251.058,-92.969,-238.718,491.655,-38.500,148.760,1152.780
333,45127.860000,2.447,24.285,254.023,-95.939,-238.693,493.677,-111.500,119.760,1147.780
334,45127.876000,5.384,34.403,253.035,-100.736,-241.547,489.827,-23.500,117.760,1148.780
335,45127.891000,2.447,32.379,255.012,-107.621,-235.679,488.958,43.500,129.760,1181.780
336,45127.906000,8.321,35.415,251.058,-112.487,-238.537,489.047,-31.500,127.760,1148.780
337,45127.929000,10.279,20.237,256.988,-124.316,-236.499,493.192,-79.500,119.760,1091.780
338,45127.951000,9.300,27.320,252.046,-131.106,-231.594,487.400,-6.500,102.760,1066.780
339,45127.969000,7.342,34.403,253.035,-137.038,-228.640,489.470,19.500,108.760,1032.780
340,45127.987000,1.468,29.344,255.012,-138.943,-228.620,486.550,-63.500,100.760,998.780
341,45128.5000,3.426,28.332,253.035,-148.694,-226.593,483.767,-95.500,98.760,988.780
342,45128.30000,4.405,30.356,252.046,-148.755,-223.693,485.734,10.500,103.760,989.780
343,45128.47000,2.447,34.403,255.012,-159.519,-221.659,484.937,33.500,102.760,980.780
344,45128.67000,0.489,27.320,255.012,-168.421,-220.616,490.016,-81.500,101.760,977.780
345,45128.90000,5.384,35.415,251.058,-162.525,-217.765,486.955,6.500,104.760,955.780
346,45128.115000,1.468,32.379,256.000,-173.237,-215.728,483.204,47.500,98.760,913.780
347,45128.142000,-1.468,34.403,256.000,-173.281,-214.763,485.173,-77.500,89.760,895.780
348,45128.173000,-3.426,33.391,251.058,-183.975,-212.725,480.437,-19.500,97.760,906.780
349,45128.173000,-4.405,32.379,254.023,-186.989,-209.799,483.440,31.500,100.760,925.780
350,45128.189000,0.489,43.510,253.035,-196.802,-202.936,481.637,29.500,107.760,926.780
351,45128.221000,1.468,37.439,253.035,-192.879,-203.939,481.569,-1.500,104.760,894.780
352,45128.241000,1.468,32.379,254.023,-200.682,-200.963,478.750,-58.500,84.760,850.780
353,45128.256000,5.384,33.391,252.046,-200.752,-197.095,480.716,-6.500,94.760,829.780
354,45128.274000,2.447,28.332,254.023,-204.649,-195.123,478.813,-6.500,88.760,807.780
355,45128.299000,4.405,30.356,254.023,-211.569,-191.193,480.900,-16.500,76.760,807.780
356,45128.314000,4.405,27.320,255.012,-216.497,-185.343,479.996,-41.500,82.760,784.780
357,45128.336000,1.468,26.308,253.035,-221.346,-186.264,478.114,1.500,78.760,800.780
358,45128.359000,0.489,29.344,255.012,-218.429,-184.356,478.060,-16.500,85.760,809.780
359,45128.379000,1.468,31.368,254.023,-233.160,-176.482,477.327,0.500,89.760,834.780
360,45128.403000,0.489,29.344,253.035,-230.251,-175.543,478.259,-19.500,91.760,848.780
361,45128.424000,-0.489,25.296,254.023,-235.153,-170.659,476.371,-47.500,91.760,873.780
362,45128.453000,0.489,29.344,253.035,-240.116,-164.811,477.437,26.500,99.760,900.780
363,45128.464000,-1.468,32.379,253.035,-238.089,-166.761,474.450,1.500,103.760,911.780
364,45128.479000,-2.447,29.344,256.000,-244.058,-158.002,475.529,-42.500,97.760,929.780
365,45128.511000,-1.468,32.379,250.069,-250.899,-155.035,473.678,6.500,103.760,957.780
366,45128.527000,-3.426,32.379,253.035,-251.904,-154.060,474.679,42.500,107.760,964.780
367,45128.545000,-2.447,38.451,253.035,-258.824,-148.194,475.779,2.500,109.760,969.780
368,45128.565000,-9.300,43.510,252.046,-265.623,-142.322,469.986,-0.500,112.760,982.780
369,45128.582000,-6.363,37.439,253.035,-261.858,-135.590,474.834,-22.500,111.760,995.780
370,45128.605000,-0.489,27.320,254.023,-266.716,-133.608,471.964,-71.500,100.760,1012.780
371,45128.627000,-0.489,23.273,254.023,-274.615,-125.798,472.095,-2.500,107.760,1042.780
372,45128.650000,1.468,26.308,255.012,-271.671,-124.856,471.057,22.500,112.760,1060.780
373,45128.665000,1.468,28.332,254.023,-277.658,-112.226,471.148,-38.500,113.760,1062.780
374,45128.687000,3.426,26.308,255.012,-281.581,-111.223,471.216,-24.500,113.760,1063.780
375,45128.710000,4.405,23.273,253.035,-285.505,-106.349,469.311,-6.500,109.760,1057.780
376,45128.727000,4.405,27.320,255.012,-287.568,-98.594,471.307,4.500,106.760,1057.780
377,45128.755000,3.426,24.285,252.046,-284.616,-92.812,467.311,-28.500,113.760,1041.780
378,45128.770000,3.426,30.356,254.023,-295.477,-85.944,469.464,19.500,110.760,1031.780
379,45128.795000,4.405,30.356,253.035,-294.535,-78.212,467.469,-0.500,109.760,985.780
380,45128.812000,7.342,33.391,254.023,-300.442,-72.353,466.582,-5.500,103.760,925.780
381,45128.820000,7.342,33.391,253.035,-295.480,-74.330,463.543,-7.500,92.760,833.780
382,45128.850000,8.321,35.415,255.012,-299.508,-67.525,466.560,-3.500,80.760,745.780
383,45128.870000,5.384,35.415,252.046,-302.478,-65.565,467.595,0.500,78.760,697.780
384,45128.890000,5.384,34.403,253.035,-300.505,-61.710,464.602,0.500,65.760,615.780
385,45128.915000,7.342,33.391,252.046,-300.575,-57.842,466.568,-17.500,59.760,524.780
386,45128.932000,9.300,32.379,254.023,-308.421,-53.901,465.717,2.500,50.760,441.780
387,45128.952000,8.321,34.403,254.023,-295.701,-54.016,465.492,-1.500,36.760,354.780
388,45128.972000,5.384,35.415,253.035,-307.539,-49.075,468.649,-8.500,29.760,272.780
389,45128.991000,5.384,36.427,253.035,-302.578,-49.116,464.624,0.500,22.760,209.780
390,45129.12000,5.384,35.415,254.023,-298.655,-50.119,464.556,4.500,17.760,152.780
391,45129.27000,5.384,35.415,254.023,-303.608,-49.110,467.596,-5.500,14.760,99.780
392,45129.52000,4.405,34.403,252.046,-308.466,-47.128,464.726,-8.500,8.760,81.780
393,45129.75000,3.426,33.391,254.023,-299.660,-47.208,464.570,2.500,3.760,39.780
394,45129.105000,2.447,33.391,253.035,-304.630,-46.200,468.595,-12.500,-0.240,5.780
395,45129.125000,1.468,30.356,252.046,-306.562,-43.277,465.672,-19.500,1.760,0.780
396,45129.140000,1.468,32.379,252.046,-304.536,-45.227,462.685,5.500,0.760,0.780
397,45129.160000,1.468,31.368,253.035,-301.678,-44.290,466.571,1.500,2.760,-0.220
398,45129.175000,1.468,31.368,254.023,-302.682,-45.250,468.559,-17.500,1.760,-0.220
399,45129.197000,2.447,31.368,254.023,-295.764,-45.309,464.499,-2.500,5.760,-0.220
400,45129.217000,1.468,30.356,254.023,-301.661,-44.289,465.587,9.500,5.760,-1.220
401,45129.240000,0.489,32.379,253.035,-306.492,-49.080,464.693,-7.500,6.760,-1.220
402,45129.264000,0.489,32.379,254.023,-299.677,-47.209,465.555,-11.500,5.760,-1.220
403,45129.279000,0.489,31.368,254.023,-300.621,-49.134,464.589,3.500,5.760,0.780
404,45129.299000,1.468,32.379,254.023,-302.604,-46.214,464.621,-2.500,4.760,1.780
405,45129.321000,1.468,31.368,253.035,-306.518,-48.114,465.677,-7.500,3.760,-0.220
406,45129.339000,-0.489,32.379,253.035,-303.565,-48.140,464.640,1.500,5.760,-0.220
407,45129.369000,-0.489,32.379,254.023,-303.609,-45.238,465.622,4.500,8.760,0.780
408,45129.386000,-0.489,32.379,252.046,-301.590,-50.092,464.608,6.500,10.760,-0.220
409,45129.406000,0.489,32.379,253.035,-301.669,-47.193,467.559,7.500,9.760,0.780
410,45129.426000,1.468,32.379,254.023,-304.560,-50.068,466.629,-4.500,8.760,0.780
411,45129.459000,-0.489,30.356,252.046,-300.646,-50.103,466.560,-0.500,7.760,-0.220
412,45129.489000,0.489,32.379,254.023,-299.650,-50.111,465.558,6.500,7.760,-0.220
413,45129.505000,0.489,32.379,253.035,-303.600,-46.206,465.623,3.500,8.760,0.780
414,45129.520000,0.489,33.391,253.035,-305.574,-48.125,467.629,-6.500,6.760,0.780
415,45129.540000,0.489,31.368,252.046,-299.625,-47.206,462.601,-5.500,4.760,-0.220
416,45129.557000,0.489,31.368,254.023,-305.521,-50.058,465.662,8.500,4.760,1.780
417,45129.577000,0.489,32.379,254.023,-300.665,-46.233,465.571,8.500,7.760,1.780
418,45129.595000,0.489,33.391,253.035,-303.644,-45.240,467.592,19.500,11.760,1.780
419,45129.612000,-0.489,32.379,253.035,-306.456,-51.014,463.710,3.500,9.760,2.780
420,45129.635000,0.489,32.379,253.035,-302.586,-48.149,464.623,6.500,9.760,0.780
421,45129.653000,-0.489,32.379,253.035,-297.720,-49.162,466.507,13.500,10.760,1.780
422,45129.685000,-1.468,32.379,253.035,-301.660,-48.160,467.560,-12.500,5.760,-0.220
423,45129.697000,0.489,32.379,254.023,-295.737,-48.211,464.502,1.500,3.760,1.780
424,45129.722000,0.489,32.379,254.023,-301.591,-46.221,462.634,5.500,4.760,0.780
425,45129.745000,0.489,33.391,254.023,-305.540,-46.187,464.673,-7.500,3.760,0.780
426,45129.760000,0.489,31.368,252.046,-301.643,-46.224,465.588,-4.500,1.760,-0.220
427,45129.785000,-0.489,31.368,253.035,-302.560,-49.115,463.639,1.500,1.760,0.780
428,45129.800000,-0.489,31.368,253.035,-303.504,-51.040,462.674,-10.500,0.760,0.780
429,45129.815000,0.489,32.379,253.035,-300.646,-50.103,466.560,-1.500,-1.240,1.780
430,45129.840000,1.468,31.368,253.035,-301.608,-48.157,464.606,-4.500,-0.240,0.780
431,45129.860000,0.489,32.379,253.035,-307.487,-49.072,465.695,0.500,2.760,0.780
432,45129.890000,-0.489,31.368,253.035,-305.557,-48.124,466.644,2.500,2.760,0.780
433,45129.905000,0.489,32.379,254.023,-300.585,-53.003,464.593,-15.500,0.760,0.780
434,45129.945000,0.489,32.379,252.046,-304.535,-47.162,463.672,-11.500,-2.240,-0.220
435,45129.955000,-0.489,32.379,253.035,-301.644,-44.288,464.602,0.500,-1.240,1.780
436,45129.970000,0.489,33.391,252.046,-295.763,-49.180,466.472,-11.500,-2.240,0.780
437,45129.985000,-0.489,32.379,253.035,-307.539,-49.075,468.649,-1.500,-0.240,0.780
438,45130.13000,0.489,31.368,253.035,-302.560,-51.051,464.626,-0.500,0.760,0.780
439,45130.27000,1.468,31.368,253.035,-302.665,-47.185,468.561,-2.500,0.760,1.780
440,45130.50000,-0.489,31.368,253.035,-304.552,-49.099,465.643,0.500,1.760,-0.220
441,45130.70000,0.489,32.379,253.035,-306.526,-49.082,466.663,3.500,2.760,1.780
442,45130.97000,-1.468,32.379,254.023,-305.540,-46.187,464.673,2.500,2.760,0.780
443,45130.112000,1.468,32.379,254.023,-307.488,-47.137,464.708,1.500,2.760,-0.220
444,45130.130000,0.489,31.368,253.035,-301.590,-52.028,465.594,-1.500,3.760,-0.220
445,45130.152000,-0.489,33.391,252.046,-304.525,-52.001,465.646,-7.500,0.760,-0.220
446,45130.162000,-1.468,32.379,252.046,-305.531,-47.154,464.674,-2.500,0.760,-0.220
447,45130.195000,-0.489,32.379,253.035,-301.599,-51.061,465.593,-10.500,-1.240,-0.220
448,45130.212000,-0.489,32.379,254.023,-295.833,-45.313,468.438,-3.500,-0.240,-0.220
449,45130.237000,-0.489,32.379,254.023,-305.548,-49.091,466.645,4.500,0.760,0.780
450,45130.257000,-1.468,32.379,253.035,-303.564,-50.075,465.627,0.500,1.760,0.780
451,45130.272000,-1.468,32.379,254.023,-301.625,-48.158,465.590,-6.500,0.760,0.780
452,45130.302000,0.489,32.379,253.035,-303.547,-50.074,464.642,-7.500,-3.240,-1.220
453,45130.315000,-0.489,31.368,254.023,-298.672,-50.120,465.540,-13.500,-6.240,0.780
454,45130.337000,-0.489,31.368,253.035,-304.561,-48.132,465.642,-2.500,-4.240,0.780
455,45130.360000,0.489,32.379,254.023,-303.556,-51.043,465.628,-8.500,-6.240,-1.220
456,45130.378000,-0.489,32.379,254.023,-301.599,-49.125,464.607,-8.500,-5.240,1.780
457,45130.400000,-0.489,31.368,254.023,-297.711,-50.130,466.508,-8.500,-6.240,0.780
458,45130.417000,-0.489,31.368,252.046,-306.562,-45.213,466.659,-1.500,-5.240,0.780
459,45130.442000,2.447,32.379,253.035,-303.599,-50.077,467.596,0.500,-5.240,0.780
460,45130.460000,-0.489,31.368,252.046,-303.548,-48.139,463.655,-2.500,-4.240,-0.220
461,45130.470000,0.489,31.368,254.023,-305.538,-51.994,467.633,1.500,-2.240,0.780
462,45130.500000,0.489,31.368,254.023,-298.681,-49.153,465.539,8.500,1.760,1.780
463,45130.517000,0.489,32.379,254.023,-301.617,-47.190,464.605,-1.500,2.760,-0.220
464,45130.546000,0.489,31.368,252.046,-303.599,-50.077,467.596,-1.500,0.760,1.780
465,45130.559000,0.489,30.356,253.035,-302.621,-48.151,466.592,-0.500,0.760,-0.220
466,45130.579000,0.489,31.368,254.023,-297.720,-47.227,465.520,8.500,5.760,0.780
467,45130.604000,-0.489,32.379,253.035,-305.583,-45.222,466.641,1.500,0.760,0.780
468,45130.626000,1.468,31.368,252.046,-306.518,-46.178,464.690,-3.500,1.760,0.780
469,45130.641000,0.489,32.379,254.023,-306.536,-44.243,464.688,1.500,2.760,-1.220
470,45130.666000,-0.489,31.368,254.023,-295.772,-48.213,466.471,-3.500,0.760,1.780
471,45130.689000,-0.489,32.379,252.046,-298.663,-51.087,465.541,-2.500,3.760,-1.220
472,45130.704000,0.489,32.379,253.035,-299.686,-48.177,466.541,4.500,4.760,0.780
473,45130.728000,0.489,32.379,253.035,-302.595,-47.181,464.622,-7.500,1.760,0.780
474,45130.764000,0.489,32.379,252.046,-300.646,-50.103,466.560,-3.500,2.760,0.780
475,45130.784000,-0.489,31.368,253.035,-301.651,-49.128,467.561,2.500,3.760,0.780
476,45130.799000,-0.489,32.379,253.035,-302.604,-48.150,465.608,-1.500,3.760,-0.220
477,45130.806000,1.468,32.379,253.035,-303.564,-50.075,465.627,-6.500,1.760,0.780
478,45130.821000,0.489,32.379,253.035,-296.794,-45.303,467.470,3.500,1.760,-0.220
479,45130.846000,0.489,31.368,253.035,-303.583,-46.205,464.638,-1.500,0.760,1.780
480,45130.866000,0.489,32.379,253.035,-298.743,-44.316,466.519,-4.500,2.760,0.780
481,45130.891000,-0.489,33.391,253.035,-298.690,-48.185,465.539,-2.500,-0.240,0.780
482,45130.912000,-0.489,32.379,254.023,-300.691,-45.266,466.555,-6.500,-3.240,1.780
483,45130.929000,1.468,32.379,253.035,-295.737,-48.211,464.502,2.500,0.760,0.780
484,45130.954000,0.489,31.368,253.035,-302.621,-48.151,466.592,4.500,1.760,0.780
485,45130.974000,1.468,31.368,253.035,-304.543,-50.067,465.644,-10.500,-2.240,-0.220
486,45130.999000,0.489,31.368,253.035,-296.732,-50.139,466.491,13.500,6.760,2.780
487,45131.16000,-0.489,32.379,253.035,-299.643,-47.207,463.585,-1.500,4.760,-1.220
488,45131.36000,-0.489,31.368,254.023,-305.557,-46.188,465.658,-3.500,4.760,-0.220
489,45131.53000,-0.489,33.391,252.046,-303.591,-47.173,465.624,-4.500,-0.240,-1.220
490,45131.76000,0.489,31.368,255.012,-299.668,-48.176,465.556,1.500,0.760,-0.220
491,45131.101000,1.468,34.403,253.035,-301.599,-49.125,464.607,-13.500,-1.240,2.780
492,45131.124000,0.489,30.356,252.046,-296.724,-49.170,465.505,-2.500,-0.240,-1.220
493,45131.131000,-0.489,32.379,254.023,-299.651,-48.175,464.571,11.500,1.760,0.780
494,45131.146000,-0.489,32.379,254.023,-306.571,-44.245,466.658,-7.500,3.760,-0.220
495,45131.174000,-0.489,31.368,252.046,-304.578,-50.068,467.614,0.500,1.760,0.780
496,45131.214000,0.489,31.368,253.035,-301.599,-49.125,464.607,6.500,3.760,-0.220
497,45131.229000,-0.489,32.379,253.035,-299.686,-48.177,466.541,-4.500,0.760,0.780
498,45131.244000,-0.489,30.356,253.035,-303.582,-48.141,465.625,2.500,0.760,1.780
499,45131.264000,0.489,33.391,253.035,-297.685,-49.160,464.537,8.500,4.760,-0.220
500,45131.286000,1.468,30.356,255.012,-302.630,-45.247,465.605,-8.500,-0.240,-1.220
501,45131.303000,0.489,33.391,252.046,-301.651,-47.192,466.574,-19.500,-0.240,-4.220
502,45131.326000,-0.489,29.344,252.046,-301.634,-49.127,466.576,-4.500,-2.240,-0.220
503,45131.346000,0.489,33.391,254.023,-305.652,-45.225,470.581,8.500,-1.240,2.780
504,45131.364000,0.489,31.368,255.012,-303.556,-49.107,464.641,-8.500,1.760,-0.220
505,45131.383000,0.489,32.379,254.023,-302.648,-45.248,466.590,-1.500,1.760,-0.220
506,45131.406000,0.489,32.379,252.046,-302.604,-46.214,464.621,8.500,3.760,1.780
507,45131.431000,0.489,30.356,254.023,-303.529,-52.009,464.644,-5.500,4.760,0.780
508,45131.449000,0.489,33.391,253.035,-299.659,-49.144,465.557,-6.500,1.760,-0.220
509,45131.459000,0.489,32.379,253.035,-302.622,-46.215,465.606,-4.500,0.760,0.780
510,45131.474000,0.489,33.391,254.023,-303.626,-47.175,467.594,4.500,0.760,0.780
511,45131.504000,1.468,32.379,253.035,-300.637,-51.071,466.561,-3.500,-1.240,0.780
512,45131.519000,0.489,31.368,253.035,-304.561,-48.132,465.642,-2.500,-1.240,1.780
513,45131.543000,0.489,31.368,253.035,-303.574,-47.172,464.639,-2.500,-1.240,-0.220
514,45131.569000,0.489,32.379,253.035,-302.638,-48.151,467.577,5.500,1.760,0.780
515,45131.587000,0.489,32.379,255.012,-301.607,-50.093,465.592,-5.500,0.760,-0.220
516,45131.606000,-0.489,33.391,253.035,-303.582,-48.141,465.625,-1.500,1.760,-0.220
517,45131.629000,0.489,31.368,254.023,-297.720,-49.162,466.507,0.500,1.760,0.780
518,45131.669000,-0.489,32.379,253.035,-303.608,-47.174,466.609,-1.500,0.760,1.780
519,45131.684000,-0.489,31.368,253.035,-301.582,-49.124,463.622,-6.500,-0.240,0.780
520,45131.701000,0.489,32.379,253.035,-297.712,-46.258,464.534,-3.500,0.760,-1.220
521,45131.718000,1.468,31.368,254.023,-305.513,-49.089,464.676,-4.500,1.760,0.780
522,45131.736000,0.489,31.368,253.035,-306.526,-49.082,466.663,-13.500,-4.240,-1.220
523,45131.762000,0.489,31.368,253.035,-303.547,-50.074,464.642,8.500,0.760,-0.220
524,45131.777000,0.489,31.368,253.035,-299.650,-50.111,465.558,-14.500,-3.240,1.780
525,45131.805000,-0.489,31.368,252.046,-295.737,-48.211,464.502,-8.500,-1.240,-2.220
526,45131.826000,0.489,31.368,254.023,-300.691,-45.266,466.555,5.500,-1.240,1.780
527,45131.839000,0.489,32.379,253.035,-306.596,-45.215,468.628,-2.500,1.760,-0.220
528,45131.863000,0.489,31.368,252.046,-302.647,-47.184,467.576,-9.500,0.760,0.780
529,45131.878000,1.468,32.379,254.023,-300.629,-50.102,465.575,7.500,2.760,0.780
530,45131.902000,-0.489,31.368,254.023,-301.643,-46.224,465.588,-4.500,2.760,0.780
531,45131.929000,-0.489,30.356,253.035,-305.565,-47.156,466.643,-6.500,2.760,1.780
532,45131.956000,-0.489,32.379,252.046,-298.655,-50.119,464.556,3.500,2.760,0.780
533,45131.971000,0.489,31.368,254.023,-299.642,-49.143,464.572,-4.500,2.760,0.780
534,45131.991000,-0.489,30.356,253.035,-304.587,-47.165,466.626,-5.500,1.760,1.780
535,45132.1000,-0.489,32.379,254.023,-295.719,-50.146,464.504,-9.500,0.760,-0.220
536,45132.26000,-0.489,31.368,252.046,-299.685,-50.113,467.527,-0.500,-0.240,1.780
537,45132.48000,1.468,31.368,252.046,-295.789,-48.214,467.456,-1.500,1.760,0.780
538,45132.63000,-0.489,33.391,252.046,-296.768,-46.269,466.487,-6.500,-1.240,-1.220
539,45132.83000,0.489,31.368,253.035,-304.613,-46.199,467.610,-3.500,-1.240,0.780
540,45132.111000,-0.489,32.379,253.035,-304.561,-48.132,465.642,-13.500,-3.240,0.780
541,45132.139000,-0.489,31.368,253.035,-302.613,-47.182,465.607,-11.500,-5.240,0.780
542,45132.151000,0.489,32.379,253.035,-302.656,-46.217,467.575,-12.500,-10.240,-0.220
543,45132.174000,0.489,34.403,254.023,-299.738,-46.244,468.508,-22.500,-12.240,-1.220
544,45132.196000,0.489,31.368,253.035,-296.724,-49.170,465.505,-45.500,-18.240,-1.220
545,45132.213000,0.489,30.356,254.023,-302.665,-45.249,467.574,0.500,-8.240,0.780
546,45132.231000,-0.489,32.379,252.046,-298.716,-47.219,466.522,-29.500,-12.240,-4.220
547,45132.248000,2.447,21.249,256.988,-296.732,-50.139,466.491,-38.500,-2.240,6.780
548,45132.276000,2.447,26.308,254.023,-302.691,-46.219,469.545,-1.500,-5.240,8.780
549,45132.301000,0.489,25.296,253.035,-300.690,-47.202,467.542,-1.500,0.760,14.780
550,45132.321000,4.405,20.237,256.988,-299.746,-49.148,470.481,20.500,4.760,10.780
551,45132.336000,2.447,24.285,253.035,-291.849,-49.216,466.403,-40.500,-0.240,7.780
552,45132.359000,0.489,25.296,254.023,-304.596,-46.198,466.625,4.500,-1.240,17.780
553,45132.384000,2.447,23.273,254.023,-296.733,-48.203,465.504,-11.500,-0.240,34.780
554,45132.396000,5.384,17.202,254.023,-299.747,-43.341,467.520,-30.500,0.760,39.780
555,45132.413000,1.468,8.095,256.988,-296.838,-44.337,469.439,-81.500,2.760,45.780
556,45132.434000,5.384,12.142,252.046,-295.816,-43.376,466.466,18.500,6.760,87.780
557,45132.449000,8.321,4.047,257.977,-296.777,-45.302,466.486,-0.500,14.760,100.780
558,45132.469000,4.405,9.107,256.000,-300.674,-41.394,463.597,-24.500,7.760,104.780
559,45132.494000,2.447,13.154,253.035,-296.725,-45.299,463.531,24.500,11.760,105.780
560,45132.512000,2.447,16.190,256.988,-301.609,-42.350,461.646,36.500,8.760,99.780
561,45132.536000,2.447,15.178,256.000,-300.701,-40.427,464.581,-2.500,10.760,97.780
562,45132.556000,5.384,11.130,256.000,-293.842,-41.457,464.460,-43.500,9.760,87.780
563,45132.576000,1.468,23.273,251.058,-299.723,-36.564,462.590,56.500,6.760,79.780
564,45132.599000,2.447,17.202,257.977,-295.739,-42.403,461.542,-8.500,9.760,67.780
565,45132.629000,0.489,13.154,256.988,-291.826,-38.568,459.499,-70.500,6.760,53.780
566,45132.649000,0.489,21.249,251.058,-297.661,-42.384,459.607,88.500,5.760,38.780
567,45132.669000,1.468,22.261,256.988,-302.581,-37.501,458.704,2.500,0.760,22.780
568,45132.684000,2.447,21.249,257.977,-288.837,-42.463,458.466,-53.500,0.760,11.780
569,45132.708000,2.447,22.261,253.035,-292.735,-36.619,454.591,2.500,0.760,1.780
570,45132.723000,-0.489,32.379,253.035,-299.559,-37.523,453.728,98.500,-4.240,-14.220
571,45132.748000,-1.468,32.379,257.977,-294.674,-40.472,455.614,-37.500,-4.240,-29.220
572,45132.771000,-1.468,39.462,250.069,-298.554,-36.563,451.740,16.500,-5.240,-30.220
573,45132.791000,-1.468,39.462,253.035,-296.518,-41.415,449.741,30.500,-4.240,-39.220
574,45132.806000,-1.468,39.462,253.035,-290.700,-39.536,451.605,-20.500,-0.240,-36.220
575,45132.829000,0.489,42.498,250.069,-296.536,-39.481,449.739,27.500,-3.240,-28.220
576,45132.846000,0.489,43.510,252.046,-300.424,-38.476,447.838,46.500,-5.240,-55.220
577,45132.866000,-3.426,52.617,252.046,-296.457,-44.316,447.774,42.500,-6.240,-64.220
578,45132.888000,-1.468,57.676,250.069,-292.596,-40.483,448.686,40.500,-8.240,-86.220
579,45132.906000,-4.405,59.700,253.035,-300.371,-42.344,446.857,-0.500,-14.240,-115.220
580,45132.926000,-6.363,63.747,248.093,-295.444,-42.387,444.801,29.500,-12.240,-110.220
581,45132.949000,-5.384,66.783,250.069,-301.315,-44.269,445.891,58.500,-9.240,-89.220
582,45132.969000,-0.489,78.925,244.139,-296.387,-46.248,444.822,103.500,-6.240,-54.220
583,45133.4000,0.489,23.273,265.884,-298.371,-43.328,444.854,-85.500,40.760,8.780
584,45133.23000,-2.447,77.913,238.208,-301.245,-46.201,442.939,138.500,9.760,-161.220
585,45133.54000,-12.237,98.150,247.104,-305.132,-49.068,443.011,477.500,15.760,-218.220
586,45133.54000,-17.132,91.067,251.058,-301.184,-49.101,440.972,197.500,-14.240,-264.220
587,45133.75000,-19.090,56.664,249.081,-302.232,-49.096,444.929,-452.500,-85.240,-255.220
588,45133.92000,-10.279,57.676,242.162,-300.265,-52.017,445.882,0.500,-1.240,-139.220
589,45133.113000,1.468,69.818,254.023,-300.292,-49.115,445.879,340.500,9.760,-161.220
590,45133.139000,1.468,55.652,259.954,-304.179,-51.982,445.951,-97.500,-18.240,-224.220
591,45133.161000,-8.321,52.617,240.185,-299.338,-55.901,450.792,-230.500,-43.240,-248.220
592,45133.178000,-5.384,39.462,253.035,-298.394,-53.976,451.758,78.500,-17.240,-212.220
593,45133.196000,-3.426,34.403,256.000,-301.277,-57.818,450.829,49.500,-16.240,-88.220
594,45133.218000,-1.468,40.474,252.046,-302.289,-59.747,453.802,-76.500,1.760,-65.220
595,45133.238000,0.489,39.462,250.069,-298.376,-55.911,451.760,19.500,7.760,-13.220
596,45133.263000,4.405,29.344,255.012,-304.291,-54.892,453.832,37.500,0.760,-12.220
597,45133.281000,5.384,28.332,254.023,-303.338,-57.806,456.772,-61.500,3.760,-32.220
598,45133.329000,2.447,29.344,251.058,-306.290,-59.716,458.795,4.500,0.760,-13.220
599,45133.349000,2.447,23.273,256.000,-303.355,-55.871,456.770,24.500,0.760,1.780
600,45133.349000,4.405,34.403,254.023,-303.460,-53.941,461.692,2.500,9.760,11.780
601,45133.367000,0.489,33.391,254.023,-296.540,-57.871,459.605,4.500,8.760,-6.220
602,45133.382000,3.426,38.451,249.081,-301.423,-60.730,460.679,36.500,-1.240,-20.220
603,45133.402000,1.468,34.403,256.000,-303.406,-61.681,462.684,-13.500,0.760,-41.220
604,45133.425000,-0.489,37.439,249.081,-299.500,-62.685,463.601,13.500,-16.240,-64.220
605,45133.442000,2.447,22.261,256.988,-303.484,-58.782,465.636,-44.500,2.760,-59.220
606,45133.467000,1.468,39.462,251.058,-306.385,-60.689,464.705,21.500,-1.240,-58.220
607,45133.487000,-0.489,37.439,253.035,-303.414,-62.650,463.670,50.500,-0.240,-54.220
608,45133.510000,3.426,32.379,256.000,-300.539,-63.648,467.558,-61.500,-7.240,-89.220
609,45133.527000,3.426,22.261,252.046,-301.656,-61.711,474.467,-2.500,-3.240,-96.220
610,45133.550000,3.426,19.225,255.012,-298.634,-61.733,469.491,17.500,-12.240,-101.220
611,45133.572000,6.363,15.178,254.023,-303.561,-63.626,472.534,-36.500,-11.240,-95.220
612,45133.592000,4.405,4.047,256.000,-301.552,-65.577,470.532,10.500,-6.240,-76.220
613,45133.612000,6.363,11.130,256.988,-302.573,-66.538,473.504,16.500,-5.240,-72.220
614,45133.632000,7.342,4.047,256.988,-309.440,-66.477,474.610,-25.500,-5.240,-75.220
615,45133.650000,8.321,-5.059,257.977,-303.595,-65.564,475.490,-27.500,1.760,-49.220
616,45133.672000,8.321,-13.154,262.919,-303.587,-64.595,474.504,4.500,-2.240,-38.220
617,45133.695000,8.321,-13.154,257.977,-307.466,-66.494,473.591,-51.500,-4.240,-13.220
618,45133.712000,4.405,-26.308,261.931,-304.556,-67.490,475.509,-25.500,-24.240,-37.220
619,45133.737000,2.447,56.664,246.116,-302.643,-64.606,476.457,133.500,-39.240,22.780
620,45133.760000,-2.447,23.273,256.988,-304.530,-66.520,473.539,47.500,-20.240,27.780
621,45133.772000,4.405,31.368,260.942,-301.612,-66.548,474.472,-180.500,-27.240,4.780
622,45133.787000,0.489,33.391,245.127,-302.573,-68.474,474.491,-9.500,7.760,11.780
623,45133.810000,3.426,20.237,261.931,-295.758,-68.538,476.339,17.500,-8.240,56.780
624,45133.834000,3.426,27.320,253.035,-304.643,-63.623,478.460,-101.500,1.760,67.780
625,45133.856000,-0.489,18.213,253.035,-301.717,-62.682,478.407,-23.500,16.760,77.780
626,45133.885000,5.384,22.261,256.000,-303.648,-61.695,476.471,56.500,13.760,84.780
627,45133.902000,7.342,22.261,255.012,-305.613,-62.646,477.491,-14.500,19.760,25.780
628,45133.920000,8.321,19.225,255.012,-302.678,-60.737,476.453,-4.500,9.760,-9.220
629,45133.950000,4.405,16.190,256.000,-304.617,-64.589,477.476,-42.500,-6.240,-99.220
630,45133.965000,1.468,8.095,256.988,-294.850,-64.679,478.288,-30.500,-14.240,-122.220
631,45133.987000,2.447,9.107,256.000,-298.651,-65.605,472.449,1.500,-9.240,-116.220
632,45134.6000,1.468,13.154,256.000,-297.662,-70.453,474.406,16.500,-10.240,-94.220
633,45134.28000,6.363,15.178,255.012,-299.750,-67.539,480.347,-15.500,-13.240,-60.220
634,45134.45000,4.405,13.154,257.977,-296.737,-66.593,475.370,-11.500,-12.240,-45.220
635,45134.66000,3.426,20.237,251.058,-303.569,-64.594,473.520,21.500,-0.240,-24.220
636,45134.82000,5.384,12.142,257.977,-301.603,-67.515,474.473,-47.500,-1.240,0.780
637,45134.107000,2.447,15.178,253.035,-297.620,-65.611,469.478,-37.500,-4.240,11.780
638,45134.132000,6.363,21.249,252.046,-298.634,-63.668,470.478,56.500,4.760,38.780
639,45134.150000,6.363,14.166,257.977,-297.620,-65.611,469.478,-21.500,8.760,38.780
640,45134.180000,6.363,15.178,254.023,-294.685,-65.638,469.426,-31.500,1.760,34.780
641,45134.205000,4.405,20.237,253.035,-298.590,-64.634,468.509,41.500,5.760,49.780
642,45134.220000,5.384,23.273,256.988,-297.568,-65.608,466.523,14.500,4.760,76.780
643,45134.235000,3.426,26.308,255.012,-296.599,-64.650,466.505,-9.500,9.760,83.780
644,45134.250000,6.363,26.308,253.035,-296.590,-63.681,465.520,-12.500,11.760,93.780
645,45134.270000,3.426,25.296,254.023,-291.655,-64.691,463.464,-11.500,9.760,93.780
646,45134.292000,4.405,23.273,256.988,-296.547,-62.711,462.564,16.500,15.760,91.780
647,45134.307000,1.468,29.344,251.058,-297.527,-58.831,460.608,2.500,6.760,74.780
648,45134.330000,-0.489,30.356,254.023,-295.578,-61.753,462.546,2.500,7.760,68.780
649,45134.351000,-1.468,27.320,253.035,-296.505,-57.869,457.636,-9.500,8.760,92.780
650,45134.368000,-0.489,21.249,253.035,-303.354,-59.743,458.743,-9.500,13.760,126.780
651,45134.388000,5.384,35.415,251.058,-298.428,-57.849,455.701,39.500,13.760,116.780
652,45134.411000,2.447,19.225,257.977,-294.549,-55.951,456.614,39.500,16.760,85.780
653,45134.442000,3.426,25.296,253.035,-293.554,-54.023,454.625,-62.500,16.760,49.780
654,45134.461000,0.489,25.296,252.046,-295.406,-57.871,450.725,-4.500,-0.240,40.780
655,45134.479000,1.468,23.273,257.977,-294.471,-54.979,451.689,26.500,10.760,26.780
656,45134.504000,-1.468,37.439,250.069,-296.324,-56.891,446.802,19.500,-6.240,-15.220
657,45134.518000,-1.468,23.273,258.965,-293.406,-56.919,447.735,-22.500,6.760,-40.220
658,45134.536000,-0.489,35.415,247.104,-294.350,-56.908,445.783,-1.500,-12.240,-59.220
659,45134.556000,-4.405,26.308,256.000,-295.337,-57.867,446.786,27.500,-4.240,-68.220
660,45134.578000,-6.363,35.415,254.023,-297.180,-62.683,442.886,-1.500,-22.240,-41.220
661,45134.601000,-4.405,47.557,247.104,-295.267,-59.799,443.834,80.500,-2.240,-35.220
662,45134.626000,-5.384,43.510,255.012,-296.228,-59.789,442.866,89.500,-1.240,-43.220
663,45134.656000,-7.342,38.451,252.046,-300.107,-59.752,440.966,-49.500,-9.240,-39.220
664,45134.667000,-3.426,53.628,247.104,-296.194,-59.787,440.897,-13.500,-1.240,-42.220
665,45134.687000,-5.384,60.711,251.058,-296.116,-58.815,435.972,144.500,3.760,-39.220
666,45134.705000,-4.405,68.806,250.069,-302.956,-59.720,436.094,32.500,-11.240,-45.220
667,45134.730000,-8.321,71.842,246.116,-295.085,-62.693,434.974,-35.500,-5.240,-55.220
668,45134.740000,-9.300,68.806,247.104,-299.059,-61.693,437.996,36.500,-2.240,-27.220
669,45134.765000,-7.342,81.960,247.104,-301.865,-60.691,430.169,77.500,1.760,-17.220
670,45134.790000,-8.321,96.126,244.139,-298.877,-62.650,428.150,86.500,-3.240,-9.220
671,45134.807000,-11.258,90.055,248.093,-303.814,-59.705,429.218,3.500,4.760,5.780
672,45134.832000,1.468,38.451,250.069,-293.084,-63.676,432.970,-120.500,23.760,25.780
673,45134.850000,0.489,11.130,259.954,-297.025,-60.738,433.037,-210.500,43.760,-24.220
674,45134.867000,-0.489,53.628,237.220,-300.913,-59.733,431.135,271.500,37.760,-13.220
675,45134.887000,-5.384,42.498,267.861,-297.925,-63.628,430.103,56.500,10.760,-17.220
676,45134.905000,-8.321,66.783,241.174,-294.080,-61.732,432.986,-99.500,-5.240,30.780
677,45134.927000,-11.258,56.664,249.081,-297.959,-63.630,432.072,48.500,24.760,45.780
678,45134.952000,-9.300,79.937,247.104,-299.882,-63.611,430.137,204.500,1.760,27.780
679,45134.970000,-9.300,86.008,246.116,-298.929,-62.653,431.104,134.500,2.760,17.780
680,45134.995000,-6.363,63.747,256.000,-300.965,-59.736,434.090,-223.500,4.760,-14.220
681,45135.10000,-8.321,64.759,240.185,-297.024,-62.674,434.023,-55.500,-1.240,-17.220
682,45135.32000,-5.384,59.700,251.058,-298.028,-63.634,436.011,128.500,4.760,-44.220
683,45135.67000,-3.426,53.628,256.000,-298.055,-62.668,436.995,-93.500,-10.240,-70.220
684,45135.87000,-6.363,51.605,246.116,-302.056,-60.701,441.001,-67.500,4.760,-77.220
685,45135.97000,-3.426,43.510,252.046,-296.149,-64.624,440.901,45.500,-5.240,-77.220
686,45135.112000,-2.447,40.474,252.046,-294.227,-64.644,442.836,-42.500,1.760,-78.220
687,45135.132000,2.447,28.332,255.012,-299.145,-63.633,443.907,-57.500,2.760,-85.220
688,45135.152000,-0.489,33.391,251.058,-297.196,-66.555,445.845,-9.500,-4.240,-98.220
689,45135.178000,-0.489,38.451,254.023,-295.221,-68.508,445.812,74.500,-8.240,-94.220
690,45135.196000,0.489,36.427,255.012,-300.193,-63.628,447.863,-17.500,-3.240,-67.220
691,45135.217000,2.447,30.356,254.023,-297.248,-66.558,448.799,-36.500,-5.240,-66.220
692,45135.242000,2.447,28.332,252.046,-302.132,-65.545,447.900,33.500,0.760,-72.220
693,45135.255000,0.489,31.368,255.012,-301.215,-64.590,450.836,25.500,-7.240,-66.220
694,45135.282000,-0.489,37.439,253.035,-295.316,-69.481,451.721,-10.500,-3.240,-38.220
695,45135.307000,0.489,35.415,251.058,-300.261,-67.504,453.775,17.500,4.760,-23.220
696,45135.322000,-2.447,37.439,252.046,-300.252,-70.407,454.763,33.500,-0.240,-25.220
697,45135.344000,-0.489,46.545,253.035,-299.239,-68.478,451.790,36.500,-2.240,-27.220
698,45135.367000,-3.426,42.498,253.035,-301.301,-66.530,456.746,-25.500,-3.240,-36.220
699,45135.382000,-1.468,41.486,249.081,-297.342,-73.339,457.668,-9.500,1.760,-21.220
700,45135.400000,0.489,27.320,256.000,-296.399,-69.478,457.647,-31.500,-0.240,-15.220
701,45135.432000,1.468,25.296,254.023,-298.434,-68.497,461.620,-7.500,2.760,-21.220
702,45135.440000,1.468,32.379,250.069,-302.304,-69.427,459.721,44.500,1.760,-38.220
703,45135.462000,0.489,37.439,254.023,-299.386,-69.454,460.653,9.500,-13.240,-57.220
704,45135.507000,-0.489,42.498,250.069,-298.399,-70.431,460.637,-18.500,-8.240,-53.220
705,45135.518000,-2.447,36.427,254.023,-301.377,-73.310,464.631,-22.500,-4.240,-39.220
706,45135.533000,0.489,29.344,252.046,-299.420,-73.328,464.596,-21.500,4.760,-16.220
707,45135.556000,1.468,20.237,256.000,-297.559,-70.447,468.498,-7.500,-1.240,-19.220
708,45135.566000,3.426,17.202,256.000,-301.481,-71.380,469.553,11.500,3.760,-19.220
709,45135.588000,1.468,14.166,257.977,-298.519,-74.309,469.504,-44.500,-7.240,-19.220
710,45135.613000,2.447,36.427,246.116,-305.395,-71.344,469.622,73.500,6.760,-16.220
711,45135.631000,3.426,3.036,264.896,-302.485,-74.276,472.527,-13.500,9.760,3.780
712,45135.665000,3.426,17.202,249.081,-303.438,-71.362,469.587,-14.500,1.760,31.780
713,45135.670000,5.384,16.190,254.023,-303.454,-75.235,472.546,-12.500,33.760,35.780
714,45135.690000,8.321,5.059,259.954,-308.329,-77.125,472.634,106.500,39.760,57.780
715,45135.712000,7.342,-1.012,256.000,-306.390,-75.208,472.598,-28.500,26.760,45.780
716,45135.735000,4.405,-11.130,259.954,-309.430,-71.316,476.585,-14.500,23.760,52.780
717,45135.765000,8.321,-13.154,261.931,-310.312,-76.141,473.652,33.500,24.760,67.780
718,45135.790000,4.405,-8.095,259.954,-307.420,-77.138,476.556,-15.500,16.760,67.780
719,45135.810000,-4.405,22.261,255.012,-309.317,-74.213,471.664,-71.500,-14.240,-9.220
720,45135.830000,-1.468,47.557,242.162,-305.499,-71.350,475.531,28.500,-70.240,14.780
721,45135.845000,0.489,20.237,267.861,-304.459,-74.259,473.547,-50.500,-1.240,23.780
722,45135.855000,-0.489,39.462,243.151,-304.511,-72.327,475.514,-103.500,-29.240,35.780
723,45135.875000,-0.489,32.379,255.012,-306.459,-73.276,475.550,-53.500,-1.240,34.780
724,45135.892000,-0.489,34.403,253.035,-303.524,-71.367,474.511,0.500,-15.240,30.780
725,45135.915000,-1.468,30.356,253.035,-307.464,-72.301,476.551,-61.500,-6.240,28.780
726,45135.937000,0.489,22.261,256.988,-305.568,-69.418,478.483,-86.500,-1.240,26.780
727,45135.962000,0.489,25.296,252.046,-308.574,-67.460,481.487,-1.500,-3.240,29.780
728,45135.985000,3.426,22.261,256.000,-301.629,-66.549,475.457,3.500,-2.240,21.780
729,45136.5000,3.426,25.296,254.023,-306.469,-70.373,474.562,-46.500,-6.240,8.780
730,45136.22000,3.426,18.213,254.023,-299.715,-69.473,479.364,-51.500,-3.240,1.780
731,45136.42000,1.468,18.213,255.012,-300.650,-70.429,477.413,-27.500,-8.240,-9.220
732,45136.65000,3.426,17.202,255.012,-304.547,-68.457,475.510,-12.500,-9.240,-7.220
733,45136.87000,2.447,18.213,256.000,-299.628,-71.404,475.427,-12.500,-6.240,-4.220
734,45136.107000,5.384,23.273,253.035,-303.542,-69.432,474.509,10.500,-3.240,-5.220
735,45136.127000,3.426,14.166,257.977,-303.551,-68.465,474.508,-27.500,1.760,-0.220
736,45136.150000,3.426,20.237,252.046,-301.611,-68.484,475.458,-11.500,-7.240,13.780
737,45136.167000,1.468,19.225,255.012,-301.560,-68.481,472.504,16.500,7.760,27.780
738,45136.187000,4.405,23.273,255.012,-296.676,-67.558,472.417,6.500,2.760,37.780
739,45136.217000,1.468,22.261,253.035,-297.663,-68.517,473.420,-5.500,6.760,34.780
740,45136.230000,4.405,12.142,255.012,-295.724,-66.600,473.383,-28.500,3.760,42.780
741,45136.250000,5.384,18.213,254.023,-301.577,-68.482,473.489,-9.500,4.760,32.780
742,45136.285000,4.405,24.285,251.058,-297.655,-67.549,472.434,61.500,3.760,16.780
743,45136.315000,6.363,22.261,256.988,-298.633,-69.476,473.438,-18.500,-4.240,-24.220
744,45136.315000,4.405,19.225,254.023,-294.667,-67.573,469.428,-48.500,-7.240,-61.220
745,45136.337000,2.447,19.225,252.046,-296.563,-68.519,466.509,26.500,-10.240,-80.220
746,45136.352000,-0.489,22.261,256.000,-298.547,-65.599,466.541,6.500,-14.240,-83.220
747,45136.375000,0.489,25.296,254.023,-301.447,-69.442,466.597,-3.500,-13.240,-82.220
748,45136.395000,1.468,31.368,254.023,-294.597,-69.505,466.475,22.500,-10.240,-107.220
749,45136.412000,-0.489,35.415,253.035,-295.541,-69.494,464.523,31.500,-22.240,-155.220
750,45136.437000,-2.447,26.308,255.012,-296.520,-69.485,464.541,-48.500,-16.240,-173.220
751,45136.455000,-1.468,11.130,256.000,-293.558,-70.478,463.505,-90.500,-16.240,-149.220
752,45136.480000,-1.468,22.261,252.046,-293.497,-73.378,461.538,85.500,-11.240,-107.220
753,45136.502000,0.489,29.344,254.023,-292.475,-74.353,459.552,57.500,-10.240,-74.220
754,45136.520000,1.468,33.391,254.023,-296.372,-74.316,458.637,-52.500,-5.240,-38.220
755,45136.535000,-0.489,29.344,254.023,-296.407,-70.446,458.633,-11.500,-1.240,-1.220
756,45136.557000,-1.468,25.296,253.035,-287.566,-70.524,456.508,13.500,2.760,10.780
757,45136.580000,2.447,31.368,253.035,-293.419,-72.406,456.614,29.500,4.760,58.780
758,45136.597000,1.468,33.391,255.012,-293.446,-69.504,456.611,-7.500,11.760,105.780
759,45136.622000,0.489,34.403,253.035,-295.342,-70.450,453.692,3.500,12.760,135.780
760,45136.642000,1.468,32.379,251.058,-297.317,-66.562,452.738,-8.500,17.760,162.780
761,45136.662000,2.447,30.356,255.012,-293.386,-66.597,451.684,-18.500,13.760,180.780
762,45136.687000,2.447,26.308,253.035,-298.287,-65.585,451.769,-9.500,27.760,191.780
763,45136.700000,4.405,26.308,255.012,-296.296,-63.665,448.779,33.500,16.760,185.780
764,45136.720000,4.405,35.415,253.035,-296.261,-65.599,447.796,32.500,18.760,163.780
765,45136.735000,1.468,40.474,254.023,-301.129,-62.649,444.925,34.500,12.760,141.780
766,45136.761000,-4.405,45.534,251.058,-294.252,-65.614,444.807,-13.500,-0.240,130.780
767,45136.783000,-6.363,34.403,253.035,-293.293,-59.816,442.814,-33.500,15.760,156.780
768,45136.806000,-3.426,40.474,251.058,-297.225,-55.910,441.895,70.500,19.760,177.780
769,45136.831000,0.489,52.617,248.093,-298.142,-58.801,439.945,86.500,16.760,143.780
770,45136.846000,-9.300,72.854,246.116,-294.176,-60.770,437.909,24.500,0.760,86.780
771,45136.868000,-16.153,72.854,250.069,-302.992,-57.786,437.077,31.500,4.760,41.780
772,45136.891000,-15.174,69.818,250.069,-302.974,-59.721,437.079,-44.500,3.760,42.780
773,45136.908000,-13.216,78.925,244.139,-302.030,-57.796,438.044,-39.500,8.760,53.780
774,45136.926000,-12.237,81.960,247.104,-298.055,-60.732,436.008,73.500,9.760,65.780
775,45136.947000,-10.279,77.913,248.093,-300.038,-59.748,437.027,42.500,2.760,22.780
776,45136.967000,-2.447,15.178,263.907,-298.143,-54.930,437.972,-116.500,25.760,20.780
777,45136.987000,-0.489,34.403,243.151,-298.134,-57.833,438.960,-161.500,13.760,-19.220
778,45137.7000,-1.468,53.628,246.116,-301.017,-59.739,437.044,283.500,15.760,-30.220
779,45137.27000,-3.426,40.474,266.873,-298.072,-62.669,437.980,9.500,-6.240,-63.220
780,45137.50000,-9.300,60.711,240.185,-298.099,-59.767,437.977,-153.500,-11.240,-58.220
781,45137.60000,-7.342,58.688,247.104,-302.992,-57.786,437.077,3.500,2.760,-43.220
782,45137.80000,-7.342,66.783,256.000,-300.956,-60.703,434.091,153.500,-1.240,-31.220
783,45137.110000,-7.342,70.830,246.116,-302.047,-59.733,440.016,-13.500,-2.240,-38.220
784,45137.135000,-7.342,55.652,252.046,-297.120,-59.776,437.960,-97.500,-3.240,-57.220
785,45137.160000,-7.342,56.664,250.069,-299.077,-61.694,438.981,2.500,0.760,-60.220
786,45137.180000,-2.447,52.617,249.081,-300.081,-60.718,439.982,9.500,2.760,-62.220
787,45137.200000,-3.426,38.451,254.023,-296.193,-61.723,441.883,-66.500,1.760,-36.220
788,45137.225000,-2.447,44.522,248.093,-295.153,-66.568,440.886,12.500,-0.240,-33.220
789,45137.250000,-4.405,44.522,256.000,-301.060,-60.709,439.999,37.500,4.760,-49.220
790,45137.265000,-4.405,47.557,251.058,-303.059,-65.533,444.963,19.500,-7.240,-47.220
791,45137.284000,-5.384,44.522,252.046,-301.093,-64.583,443.942,-54.500,5.760,-54.220
792,45137.307000,-5.384,46.545,251.058,-300.167,-62.659,445.893,12.500,-4.240,-44.220
793,45137.327000,-2.447,42.498,253.035,-301.224,-61.686,449.848,30.500,-2.240,-24.220
794,45137.342000,-3.426,39.462,254.023,-293.335,-62.722,446.756,-29.500,8.760,-19.220
795,45137.367000,-2.447,43.510,250.069,-301.198,-62.653,448.864,12.500,6.760,-20.220
796,45137.382000,-3.426,42.498,253.035,-298.262,-64.615,449.799,39.500,1.760,-21.220
797,45137.405000,-0.489,42.498,251.058,-298.252,-67.519,450.787,-34.500,2.760,-25.220
798,45137.415000,-4.405,42.498,250.069,-300.262,-63.632,451.802,13.500,4.760,-24.220
799,45137.445000,-1.468,45.534,250.069,-302.253,-65.552,454.793,43.500,0.760,-55.220
800,45137.470000,-0.489,30.356,256.988,-302.262,-64.585,454.792,-76.500,-6.240,-67.220
801,45137.492000,2.447,33.391,251.058,-297.378,-67.533,456.678,11.500,-5.240,-64.220
802,45137.507000,1.468,34.403,255.012,-299.316,-71.386,457.701,42.500,-4.240,-76.220
803,45137.525000,3.426,24.285,256.988,-300.348,-65.573,457.713,-44.500,-7.240,-82.220
804,45137.547000,-0.489,29.344,252.046,-300.348,-65.573,457.713,16.500,-6.240,-98.220
805,45137.565000,1.468,31.368,252.046,-294.468,-68.529,458.596,5.500,-18.240,-107.220
806,45137.587000,1.468,19.225,257.977,-295.507,-69.492,462.554,-60.500,-16.240,-86.220
807,45137.607000,3.426,14.166,255.012,-298.398,-74.302,462.611,-43.500,-2.240,-82.220
808,45137.632000,5.384,25.296,252.046,-305.300,-70.371,463.712,58.500,-7.240,-78.220
809,45137.667000,6.363,13.154,260.942,-303.334,-71.356,463.679,-18.500,-8.240,-88.220
810,45137.677000,5.384,5.059,256.000,-297.498,-69.476,464.558,-60.500,-9.240,-74.220
811,45137.692000,6.363,13.154,254.023,-302.391,-69.431,464.644,61.500,-2.240,-61.220
812,45137.712000,4.405,22.261,256.000,-300.415,-73.320,465.598,52.500,-7.240,-51.220
813,45137.740000,4.405,18.213,256.988,-302.468,-72.340,470.556,-58.500,-3.240,-56.220
814,45137.755000,4.405,16.190,254.023,-303.350,-75.229,466.637,-11.500,-11.240,-68.220
815,45137.777000,5.384,13.154,256.000,-299.480,-74.299,468.536,38.500,-0.240,-67.220
816,45137.800000,5.384,18.213,255.012,-302.425,-71.369,467.601,-24.500,-27.240,-85.220
817,45137.815000,0.489,12.142,256.000,-305.412,-73.281,471.594,-1.500,-0.240,-67.220
818,45137.840000,6.363,21.249,252.046,-302.449,-78.146,472.531,23.500,-4.240,-50.220
819,45137.858000,5.384,14.166,259.954,-296.526,-78.196,469.473,-11.500,-11.240,-64.220
820,45137.877000,3.426,18.213,252.046,-306.381,-76.175,472.599,-25.500,3.760,-55.220
821,45137.900000,3.426,11.130,256.988,-299.515,-74.301,470.506,13.500,-10.240,-54.220
822,45137.925000,4.405,19.225,254.023,-305.350,-76.181,469.627,38.500,3.760,-45.220
823,45137.940000,-0.489,25.296,256.988,-303.376,-78.134,469.594,26.500,4.760,-41.220
824,45137.957000,-1.468,38.451,250.069,-298.500,-80.115,471.479,7.500,-2.240,-29.220
825,45137.992000,-1.468,27.320,256.000,-301.428,-77.184,469.559,-66.500,-5.240,-17.220
826,45138.17000,-1.468,35.415,251.058,-303.376,-78.134,469.594,-36.500,-18.240,0.780
827,45138.37000,-0.489,35.415,251.058,-301.453,-78.154,471.529,-53.500,-19.240,1.780
828,45138.52000,-0.489,30.356,256.000,-295.609,-75.305,471.422,-75.500,-18.240,-0.220
829,45138.60000,-0.489,34.403,251.058,-299.531,-78.174,473.464,-22.500,-12.240,3.780
830,45138.70000,-1.468,32.379,255.012,-292.743,-75.336,475.310,-7.500,-13.240,1.780
831,45138.97000,-0.489,35.415,253.035,-297.592,-74.321,472.441,-6.500,-2.240,3.780
832,45138.112000,-0.489,32.379,253.035,-298.518,-78.180,471.477,-16.500,-0.240,3.780
833,45138.137000,0.489,29.344,252.046,-295.617,-76.273,472.408,-16.500,-0.240,2.780
834,45138.162000,1.468,23.273,255.012,-298.579,-77.216,474.431,-29.500,-2.240,-17.220
835,45138.183000,1.468,22.261,254.023,-299.522,-77.205,472.478,-5.500,-7.240,-21.220
836,45138.207000,3.426,21.249,254.023,-291.755,-78.248,476.280,-28.500,-7.240,-25.220
837,45138.223000,3.426,19.225,256.000,-297.618,-73.354,473.425,-18.500,-4.240,-9.220
838,45138.256000,4.405,17.202,256.000,-298.562,-73.343,471.472,-8.500,-4.240,2.780
839,45138.273000,4.405,12.142,256.000,-295.687,-76.277,476.347,-26.500,-0.240,8.780
840,45138.288000,7.342,13.154,255.012,-299.523,-75.269,471.492,-31.500,-1.240,-1.220
841,45138.311000,6.363,10.119,256.000,-297.565,-79.159,473.430,4.500,-1.240,-6.220
842,45138.328000,8.321,12.142,255.012,-292.656,-77.266,471.373,-14.500,-7.240,-27.220
843,45138.346000,7.342,2.024,256.988,-287.789,-76.345,472.270,-24.500,-5.240,-29.220
844,45138.383000,6.363,10.119,254.023,-299.488,-75.267,469.522,-25.500,-9.240,-31.220
845,45138.398000,5.384,11.130,256.000,-297.505,-78.187,469.490,22.500,-1.240,-13.220
846,45138.418000,6.363,16.190,255.012,-298.493,-73.340,467.533,20.500,-6.240,1.780
847,45138.443000,7.342,20.237,254.023,-299.445,-76.233,467.554,-3.500,-0.240,-12.220
848,45138.466000,3.426,14.166,256.988,-292.543,-78.228,465.465,-9.500,-2.240,-4.220
849,45138.483000,5.384,15.178,254.023,-292.578,-76.294,466.448,-28.500,-1.240,-4.220
850,45138.498000,4.405,15.178,255.012,-295.540,-73.365,466.497,10.500,4.760,12.780
851,45138.518000,7.342,14.166,256.988,-293.487,-78.217,463.513,4.500,6.760,20.780
852,45138.541000,4.405,22.261,252.046,-293.505,-74.347,462.524,0.500,0.760,18.780
853,45138.558000,2.447,25.296,255.012,-296.467,-71.418,462.573,32.500,4.760,43.780
854,45138.581000,2.447,28.332,254.023,-292.457,-76.287,459.554,21.500,4.760,60.780
855,45138.598000,2.447,26.308,256.000,-292.441,-72.415,456.596,1.500,12.760,74.780
856,45138.623000,0.489,29.344,254.023,-286.587,-74.405,458.464,5.500,6.760,85.780
857,45138.641000,0.489,31.368,252.046,-294.389,-71.429,455.645,15.500,11.760,99.780
858,45138.658000,2.447,30.356,255.012,-294.372,-71.428,454.660,8.500,19.760,111.780
859,45138.681000,1.468,41.486,251.058,-297.290,-71.400,453.727,17.500,10.760,91.780
860,45138.698000,1.468,34.403,255.012,-293.393,-71.437,454.643,23.500,10.760,50.780
861,45138.713000,-4.405,30.356,254.023,-290.467,-70.496,454.590,-48.500,5.760,28.780
862,45138.743000,-4.405,28.332,253.035,-297.239,-69.461,449.786,-14.500,6.760,32.780
863,45138.761000,-5.384,31.368,253.035,-296.242,-71.405,449.771,30.500,2.760,49.780
864,45138.786000,-2.447,33.391,254.023,-297.178,-68.490,445.846,32.500,2.760,72.780
865,45138.821000,-1.468,39.462,253.035,-300.114,-68.463,445.898,38.500,-0.240,45.780
866,45138.836000,-7.342,51.605,250.069,-294.208,-70.451,444.812,64.500,-9.240,26.780
867,45138.851000,-9.300,56.664,250.069,-297.109,-68.486,441.907,37.500,1.760,-0.220
868,45138.876000,-12.237,54.640,251.058,-295.134,-70.439,441.875,-22.500,-3.240,6.780
869,45138.883000,-11.258,45.534,252.046,-295.100,-70.437,439.905,-37.500,7.760,63.780
870,45138.913000,-5.384,50.593,249.081,-296.114,-66.558,439.919,30.500,9.760,107.780
871,45138.921000,-1.468,57.676,249.081,-298.027,-69.442,438.971,81.500,11.760,97.780
872,45138.946000,-2.447,66.783,248.093,-298.927,-70.396,435.051,18.500,3.760,44.780
873,45138.971000,-6.363,66.783,249.081,-298.054,-66.539,438.968,-22.500,-4.240,-7.220
874,45138.988000,-8.321,70.830,248.093,-299.024,-63.626,437.013,3.500,-5.240,-18.220
875,45139.13000,-8.321,69.818,248.093,-295.057,-69.466,436.950,10.500,2.760,-15.220
876,45139.28000,-5.384,64.759,251.058,-297.976,-67.503,435.030,-15.500,3.760,16.780
877,45139.39000,-3.426,62.735,249.081,-298.953,-71.366,437.021,-24.500,2.760,3.780
878,45139.59000,0.489,40.474,252.046,-292.096,-68.524,434.928,-69.500,16.760,9.780
879,45139.88000,-0.489,20.237,260.942,-293.127,-66.582,436.912,-89.500,2.760,-14.220
880,45139.128000,-1.468,39.462,244.139,-299.976,-66.520,437.034,138.500,14.760,-2.220
881,45139.143000,-0.489,32.379,260.942,-297.005,-68.480,435.999,10.500,7.760,-7.220
882,45139.158000,-0.489,33.391,255.012,-298.980,-68.463,437.018,-55.500,6.760,-4.220
883,45139.176000,0.489,34.403,248.093,-297.023,-66.545,435.997,-16.500,11.760,-6.220
884,45139.201000,0.489,29.344,254.023,-290.138,-70.477,435.880,54.500,4.760,-3.220
885,45139.221000,-0.489,36.427,254.023,-295.974,-74.294,435.987,5.500,3.760,-0.220
886,45139.238000,-1.468,33.391,252.046,-297.057,-68.483,438.953,-27.500,7.760,-5.220
887,45139.261000,0.489,33.391,253.035,-293.100,-69.484,436.915,34.500,11.760,-2.220
888,45139.281000,0.489,33.391,252.046,-294.035,-68.505,433.977,21.500,8.760,-6.220
889,45139.298000,-7.342,42.498,255.012,-300.893,-69.411,435.084,50.500,-6.240,-15.220
890,45139.321000,-8.321,65.771,244.139,-296.010,-68.488,434.997,82.500,4.760,1.780
891,45139.343000,-9.300,58.688,256.000,-301.846,-66.497,432.144,-23.500,3.760,-4.220
892,45139.358000,-7.342,61.723,249.081,-291.091,-69.499,433.926,-55.500,-5.240,-1.220
893,45139.383000,-6.363,63.747,245.127,-296.001,-69.456,434.998,54.500,1.760,-28.220
894,45139.401000,-7.342,59.700,255.012,-297.984,-68.471,436.016,17.500,-7.240,-51.220
895,45139.431000,-10.279,64.759,246.116,-301.941,-69.406,439.041,-18.500,-1.240,-68.220
896,45139.446000,-9.300,59.700,252.046,-292.138,-73.366,439.856,-1.500,-10.240,-71.220
897,45139.463000,-8.321,58.688,249.081,-297.047,-73.322,440.928,-1.500,0.760,-76.220
898,45139.483000,-8.321,53.628,252.046,-299.040,-71.371,441.945,-36.500,-6.240,-85.220
899,45139.507000,-2.447,44.522,252.046,-295.107,-75.277,442.864,-26.500,-10.240,-84.220
900,45139.525000,-0.489,38.451,252.046,-299.083,-72.341,444.900,1.500,-3.240,-92.220
901,45139.545000,-3.426,39.462,253.035,-294.181,-73.353,444.815,-15.500,-5.240,-94.220
902,45139.570000,-5.384,39.462,251.058,-294.190,-74.321,445.800,-24.500,-10.240,-89.220
903,45139.595000,-2.447,34.403,253.035,-293.299,-68.528,447.747,8.500,-7.240,-66.220
904,45139.612000,-0.489,36.427,253.035,-297.213,-70.428,448.803,-5.500,0.760,-51.220
905,45139.632000,0.489,34.403,252.046,-290.336,-73.392,448.685,3.500,-2.240,-41.220
906,45139.647000,0.489,35.415,253.035,-293.324,-73.368,451.691,15.500,1.760,-50.220
907,45139.667000,-2.447,40.474,252.046,-300.155,-75.241,451.814,-4.500,-4.240,-71.220
908,45139.687000,-1.468,45.534,248.093,-296.216,-74.307,449.774,17.500,-8.240,-75.220
909,45139.705000,-2.447,27.320,257.977,-294.319,-75.296,453.679,2.500,0.760,-54.220
910,45139.720000,1.468,33.391,250.069,-304.139,-73.274,454.835,-70.500,-1.240,-42.220
911,45139.750000,3.426,30.356,254.023,-293.296,-80.142,453.667,67.500,0.760,-44.220
912,45139.791000,4.405,25.296,257.977,-299.211,-77.188,454.753,-2.500,-5.240,-79.220
913,45139.798000,1.468,26.308,252.046,-294.362,-78.202,457.621,-55.500,-12.240,-116.220
914,45139.813000,1.468,15.178,256.000,-294.396,-78.204,459.591,-13.500,-11.240,-109.220
915,45139.838000,3.426,26.308,254.023,-291.530,-76.299,462.491,35.500,-13.240,-110.220
916,45139.856000,0.489,28.332,254.023,-300.301,-80.089,462.651,54.500,-9.240,-110.220
917,45139.876000,4.405,27.320,254.023,-295.348,-83.033,460.598,-28.500,-13.240,-116.220
918,45139.901000,4.405,15.178,255.012,-300.345,-79.123,464.620,-29.500,-12.240,-88.220
919,45139.916000,5.384,16.190,255.012,-290.525,-81.146,463.464,-3.500,-7.240,-85.220
920,45139.941000,3.426,21.249,253.035,-296.386,-83.996,464.555,28.500,-6.240,-73.220
921,45139.961000,3.426,19.225,255.012,-294.394,-87.883,464.525,-10.500,-7.240,-51.220
922,45139.983000,2.447,23.273,252.046,-296.457,-80.128,466.521,5.500,-6.240,-21.220
923,45140.2000,0.489,17.202,258.965,-295.391,-84.004,463.553,-5.500,3.760,0.780
924,45140.22000,1.468,19.225,253.035,-298.378,-82.044,465.573,-4.500,-3.240,25.780
925,45140.37000,3.426,15.178,256.000,-302.257,-85.878,465.646,5.500,7.760,39.780
926,45140.52000,2.447,16.190,256.988,-297.435,-82.055,467.525,-11.500,6.760,47.780
927,45140.75000,6.363,14.166,255.012,-299.373,-85.908,468.548,7.500,6.760,45.780
928,45140.89000,6.363,11.130,256.988,-300.414,-79.127,468.559,-10.500,6.760,29.780
929,45140.115000,6.363,16.190,252.046,-301.296,-83.952,465.626,0.500,-0.240,24.780
930,45140.137000,4.405,11.130,256.988,-301.400,-82.022,470.548,0.500,5.760,26.780
931,45140.160000,4.405,17.202,255.012,-301.400,-82.022,470.548,5.500,0.760,10.780
932,45140.182000,4.405,18.213,255.012,-296.491,-82.066,469.477,-4.500,-3.240,-1.220
933,45140.200000,0.489,37.439,253.035,-293.581,-81.126,470.409,-5.500,-8.240,-14.220
934,45140.222000,-0.489,34.403,251.058,-300.431,-81.064,470.530,29.500,-4.240,5.780
935,45140.252000,-1.468,32.379,256.000,-293.511,-84.994,468.443,-69.500,-12.240,0.780
936,45140.267000,-0.489,36.427,249.081,-301.401,-80.087,469.562,-30.500,-3.240,-2.220
937,45140.302000,-1.468,32.379,256.000,-302.344,-82.012,468.596,-6.500,-6.240,1.780
938,45140.317000,-0.489,35.415,252.046,-298.439,-83.016,469.513,-63.500,-10.240,1.780
939,45140.328000,-0.489,32.379,253.035,-295.538,-83.044,471.430,-56.500,-4.240,2.780
940,45140.346000,2.447,23.273,256.000,-300.448,-81.065,471.515,-34.500,0.760,23.780
941,45140.371000,2.447,17.202,256.988,-294.569,-80.150,470.425,-45.500,3.760,41.780
942,45140.381000,4.405,16.190,255.012,-292.630,-78.233,470.389,-13.500,3.760,52.780
943,45140.403000,3.426,18.213,255.012,-299.470,-81.074,471.498,-0.500,5.760,51.780
944,45140.426000,6.363,14.166,256.000,-289.641,-82.128,469.356,-18.500,9.760,45.780
945,45140.446000,5.384,16.190,255.012,-298.413,-82.046,467.542,-3.500,2.760,35.780
946,45140.466000,3.426,21.249,254.023,-298.465,-80.113,469.510,20.500,2.760,15.780
947,45140.488000,1.468,23.273,256.000,-297.479,-79.154,468.507,-3.500,-1.240,14.780
948,45140.511000,0.489,23.273,254.023,-299.470,-79.138,470.511,-12.500,1.760,17.780
949,45140.536000,1.468,28.332,253.035,-296.439,-80.127,465.536,18.500,0.760,27.780
950,45140.566000,1.468,22.261,254.023,-292.560,-80.165,467.436,5.500,5.760,32.780
951,45140.596000,2.447,22.261,256.988,-289.642,-78.257,467.383,-28.500,-1.240,26.780
952,45140.611000,3.426,23.273,252.046,-297.479,-79.154,468.507,13.500,7.760,20.780
953,45140.621000,5.384,19.225,257.977,-293.521,-80.155,466.469,-8.500,-5.240,10.780
954,45140.638000,4.405,20.237,253.035,-291.573,-79.205,466.433,-24.500,-0.240,4.780
955,45140.656000,3.426,21.249,254.023,-295.426,-80.134,463.549,33.500,-3.240,0.780
956,45140.676000,2.447,25.296,253.035,-295.452,-79.168,464.533,-0.500,-0.240,-2.220
957,45140.708000,1.468,24.285,255.012,-290.604,-76.311,465.428,-17.500,-3.240,11.780
958,45140.716000,1.468,24.285,253.035,-295.462,-76.265,463.545,-15.500,2.760,16.780
959,45140.746000,1.468,26.308,254.023,-292.457,-78.223,460.541,23.500,1.760,28.780
960,45140.763000,2.447,28.332,255.012,-288.560,-76.324,460.470,10.500,1.760,12.780
961,45140.787000,2.447,32.379,254.023,-294.439,-79.175,462.546,5.500,-3.240,-2.220
962,45140.800000,3.426,33.391,253.035,-291.417,-79.197,457.571,2.500,-1.240,-15.220
963,45140.825000,-0.489,29.344,255.012,-292.388,-76.283,455.615,-6.500,-7.240,-31.220
964,45140.860000,-1.468,39.462,251.058,-295.331,-79.161,457.640,20.500,-2.240,-25.220
965,45140.880000,-5.384,43.510,250.069,-295.384,-77.228,459.607,-3.500,-8.240,-23.220
966,45140.891000,-2.447,35.415,254.023,-296.293,-77.215,455.686,7.500,3.760,-7.220
967,45140.911000,-1.468,32.379,254.023,-297.245,-78.173,454.719,-20.500,0.760,-0.220
968,45140.933000,-2.447,33.391,252.046,-289.452,-76.310,455.563,-16.500,-1.240,15.780
969,45140.948000,-1.468,35.415,255.012,-290.344,-78.232,451.644,14.500,6.760,24.780
970,45140.966000,-2.447,43.510,250.069,-296.180,-78.177,449.778,11.500,-0.240,28.780
971,45140.988000,-4.405,41.486,252.046,-289.400,-76.307,452.609,-11.500,2.760,24.780
972,45141.6000,-4.405,40.474,250.069,-289.427,-73.405,452.606,2.500,1.760,31.780
973,45141.21000,-3.426,25.296,256.000,-291.349,-77.257,452.645,-36.500,6.760,56.780
974,45141.51000,-1.468,33.391,252.046,-293.288,-77.238,451.695,-15.500,7.760,71.780
975,45141.66000,1.468,36.427,253.035,-294.198,-75.289,446.786,43.500,3.760,81.780
976,45141.91000,-0.489,35.415,255.012,-295.220,-72.379,447.785,25.500,7.760,81.780
977,45141.121000,-2.447,37.439,252.046,-290.327,-76.295,449.672,-35.500,4.760,67.780
978,45141.141000,-2.447,37.439,252.046,-291.263,-73.380,445.748,14.500,5.760,54.780
979,45141.161000,-2.447,33.391,255.012,-287.296,-77.285,444.697,6.500,5.760,53.780
980,45141.183000,-1.468,33.391,252.046,-295.133,-78.182,445.822,-31.500,3.760,54.780
981,45141.191000,-1.468,39.462,251.058,-288.345,-73.408,446.680,25.500,1.760,51.780
982,45141.213000,-1.468,44.522,252.046,-296.155,-73.336,445.834,46.500,-0.240,46.780
983,45141.236000,-3.426,39.462,253.035,-293.202,-75.297,445.784,-31.500,3.760,38.780
984,45141.256000,-4.405,48.569,248.093,-292.207,-73.370,443.795,-26.500,4.760,31.780
985,45141.281000,-2.447,46.545,252.046,-298.078,-71.380,442.912,52.500,5.760,35.780
986,45141.301000,-3.426,46.545,253.035,-292.173,-71.432,440.839,-17.500,3.760,30.780
987,45141.316000,-5.384,48.569,251.058,-295.143,-71.407,442.861,-14.500,1.760,32.780
988,45141.333000,-3.426,45.534,252.046,-296.122,-67.527,440.904,22.500,1.760,26.780
989,45141.363000,-2.447,45.534,251.058,-293.142,-72.390,440.857,-15.500,1.760,6.780
990,45141.373000,-5.384,46.545,250.069,-292.199,-68.530,440.836,-4.500,-1.240,0.780
991,45141.396000,-4.405,47.557,252.046,-291.194,-71.441,440.822,13.500,-0.240,-3.220
992,45141.416000,-3.426,46.545,250.069,-296.147,-72.368,444.848,7.500,0.760,-1.220
993,45141.441000,-0.489,36.427,252.046,-294.095,-71.412,438.904,-10.500,3.760,5.780
994,45141.463000,0.489,28.332,255.012,-296.156,-69.464,443.861,-48.500,7.760,-6.220
995,45141.482000,-0.489,35.415,248.093,-291.238,-70.475,442.790,44.500,1.760,1.780
996,45141.506000,0.489,31.368,256.000,-290.215,-73.385,441.791,19.500,4.760,-2.220
997,45141.521000,-0.489,34.403,250.069,-295.082,-72.372,439.907,-22.500,3.760,-3.220
998,45141.551000,-1.468,31.368,253.035,-295.064,-74.306,439.909,18.500,3.760,-0.220
999,45141.571000,-0.489,35.415,254.023,-291.168,-74.343,440.825,24.500,5.760,0.780
1000,45141.586000,-1.468,36.427,253.035,-296.104,-71.397,441.893,11.500,2.760,-2.220
1001,45141.616000,-2.447,34.403,254.023,-298.052,-72.347,441.929,25.500,10.760,-2.220
1002,45141.623000,-5.384,52.617,249.081,-292.173,-69.496,439.852,40.500,5.760,0.780
1003,45141.641000,-5.384,55.652,251.058,-299.974,-74.263,440.980,70.500,6.760,11.780
1004,45141.663000,-3.426,50.593,254.023,-294.139,-70.447,440.873,-67.500,-1.240,9.780
1005,45141.688000,-5.384,47.557,248.093,-294.182,-71.417,443.828,-20.500,9.760,7.780
1006,45141.708000,-4.405,43.510,253.035,-299.083,-70.405,443.913,38.500,1.760,9.780
1007,45141.733000,-5.384,53.628,250.069,-291.202,-74.345,442.794,14.500,4.760,-0.220
1008,45141.751000,-5.384,57.676,249.081,-292.225,-71.435,443.793,-1.500,1.760,-11.220
1009,45141.768000,-7.342,57.676,251.058,-298.078,-73.316,443.899,1.500,1.760,-18.220
1010,45141.788000,-7.342,61.723,248.093,-298.095,-75.253,445.871,15.500,2.760,-9.220
1011,45141.809000,-5.384,48.569,254.023,-293.193,-76.265,445.785,-46.500,5.760,-5.220
1012,45141.833000,-2.447,48.569,249.081,-298.061,-73.315,442.914,8.500,3.760,1.780
1013,45141.851000,-3.426,44.522,253.035,-290.302,-73.390,446.715,21.500,3.760,-19.220
1014,45141.873000,-0.489,40.474,251.058,-298.165,-71.385,447.836,-21.500,-2.240,-49.220
1015,45141.898000,-1.468,43.510,251.058,-293.271,-77.237,450.710,15.500,-5.240,-66.220
1016,45141.921000,-1.468,37.439,252.046,-292.302,-72.407,448.718,-6.500,-1.240,-63.220
1017,45141.931000,-1.468,36.427,252.046,-292.328,-73.376,450.689,-13.500,-2.240,-55.220
1018,45141.951000,-0.489,31.368,251.058,-298.138,-74.287,447.839,-9.500,2.760,-40.220
1019,45141.971000,0.489,32.379,255.012,-298.172,-76.225,450.795,9.500,1.760,-38.220
1020,45141.991000,1.468,34.403,251.058,-294.284,-75.294,451.710,16.500,0.760,-37.220
1021,45142.6000,0.489,28.332,256.988,-300.199,-74.276,453.782,-11.500,-6.240,-47.220
1022,45142.26000,-0.489,34.403,251.058,-295.280,-77.222,453.699,7.500,-2.240,-53.220
1023,45142.51000,0.489,26.308,254.023,-298.233,-75.261,453.749,-9.500,-2.240,-41.220
1024,45142.75000,-0.489,22.261,256.000,-298.284,-77.199,457.690,-0.500,1.760,-40.220
1025,45142.94000,2.447,29.344,251.058,-297.324,-73.338,456.684,51.500,4.760,-44.220
1026,45142.119000,0.489,30.356,256.000,-297.272,-75.271,454.716,12.500,2.760,-54.220
1027,45142.142000,1.468,38.451,252.046,-299.297,-79.128,460.663,-4.500,-10.240,-62.220
1028,45142.162000,1.468,25.296,255.012,-297.262,-80.110,456.691,-54.500,0.760,-72.220
1029,45142.177000,0.489,27.320,255.012,-301.176,-80.074,456.760,24.500,-12.240,-71.220
1030,45142.202000,1.468,29.344,257.977,-291.503,-81.137,463.481,29.500,-6.240,-69.220
1031,45142.228000,-0.489,35.415,250.069,-301.298,-78.145,462.666,-26.500,-13.240,-74.220
1032,45142.252000,0.489,23.273,254.023,-298.327,-80.106,461.632,-22.500,-7.240,-67.220
1033,45142.282000,2.447,30.356,253.035,-302.206,-82.004,460.718,2.500,-7.240,-56.220
1034,45142.297000,-0.489,31.368,253.035,-294.404,-81.109,461.563,28.500,-2.240,-56.220
1035,45142.312000,0.489,30.356,255.012,-296.387,-82.060,463.568,14.500,-4.240,-62.220
1036,45142.322000,-0.489,29.344,252.046,-294.456,-83.047,465.504,-27.500,-14.240,-69.220
1037,45142.345000,1.468,24.285,256.988,-297.374,-83.020,464.572,-1.500,-4.240,-59.220
1038,45142.355000,1.468,26.308,253.035,-301.322,-82.986,466.610,14.500,-6.240,-56.220
1039,45142.383000,0.489,21.249,256.000,-301.357,-81.052,467.593,-31.500,-6.240,-52.220
1040,45142.403000,2.447,21.249,254.023,-296.369,-85.931,464.557,-9.500,-2.240,-45.220
1041,45142.428000,3.426,17.202,256.000,-297.400,-82.053,465.555,21.500,-0.240,-40.220
1042,45142.446000,1.468,19.225,256.000,-297.356,-84.954,464.573,3.500,-0.240,-51.220
1043,45142.467000,2.447,23.273,252.046,-295.425,-85.942,466.509,-1.500,-4.240,-51.220
1044,45142.489000,2.447,13.154,256.988,-294.508,-81.114,467.472,-13.500,-7.240,-43.220
1045,45142.508000,5.384,10.119,254.023,-298.404,-84.949,468.530,-23.500,-3.240,-28.220
1046,45142.531000,6.363,10.119,257.977,-296.456,-84.000,468.494,0.500,0.760,-17.220
1047,45142.551000,-2.447,20.237,257.977,-297.356,-84.954,464.573,18.500,-1.240,-8.220
1048,45142.596000,-1.468,43.510,248.093,-301.348,-82.020,467.594,53.500,-15.240,6.780
1049,45142.596000,-1.468,28.332,257.977,-299.400,-83.006,468.545,-118.500,-12.240,-9.220
1050,45142.631000,-1.468,35.415,248.093,-293.511,-84.994,468.443,-42.500,-16.240,5.780
1051,45142.641000,0.489,34.403,253.035,-296.438,-83.999,467.509,-13.500,-9.240,-5.220
1052,45142.651000,-0.489,31.368,256.000,-295.493,-87.881,471.435,-10.500,-10.240,1.780
1053,45142.673000,0.489,36.427,251.058,-294.525,-81.115,468.457,-48.500,-6.240,-1.220
1054,45142.688000,-0.489,31.368,256.988,-294.515,-85.954,470.431,-23.500,-2.240,-1.220
1055,45142.713000,0.489,29.344,253.035,-294.472,-86.920,468.463,-24.500,-5.240,6.780
1056,45142.733000,2.447,19.225,256.988,-292.516,-83.066,466.455,-53.500,2.760,13.780
1057,45142.758000,3.426,20.237,252.046,-297.495,-81.091,470.478,-18.500,0.760,25.780
1058,45142.784000,2.447,20.237,255.012,-292.533,-85.003,468.426,14.500,3.760,27.780
1059,45142.796000,4.405,20.237,255.012,-292.525,-82.099,466.454,6.500,2.760,21.780
1060,45142.817000,3.426,19.225,255.012,-293.538,-82.092,468.440,-31.500,1.760,16.780
1061,45142.836000,6.363,14.166,255.012,-294.508,-81.114,467.472,-10.500,1.760,17.780
1062,45142.858000,5.384,13.154,255.012,-290.602,-82.118,468.389,-13.500,-0.240,10.780
1063,45142.883000,4.405,13.154,256.000,-289.624,-82.127,468.371,-8.500,-1.240,12.780
1064,45142.898000,4.405,16.190,256.000,-295.451,-84.975,467.493,-1.500,-3.240,4.780
1065,45142.923000,3.426,20.237,253.035,-293.494,-84.993,467.459,13.500,0.760,5.780
1066,45142.943000,2.447,15.178,256.988,-291.520,-83.074,465.452,-24.500,0.760,29.780
1067,45142.963000,3.426,19.225,254.023,-295.460,-82.072,466.505,6.500,3.760,54.780
1068,45142.988000,4.405,20.237,255.012,-293.503,-82.090,466.471,18.500,8.760,52.780
1069,45143.8000,3.426,23.273,255.012,-294.457,-79.176,463.531,17.500,1.760,49.780
1070,45143.38000,2.447,29.344,253.035,-290.507,-81.145,462.479,-9.500,-1.240,27.780
1071,45143.53000,0.489,25.296,254.023,-289.555,-82.123,464.432,-7.500,3.760,29.780
1072,45143.63000,-0.489,33.391,252.046,-295.400,-81.101,462.565,19.500,-1.240,47.780
1073,45143.88000,-1.468,33.391,252.046,-291.512,-80.170,463.480,15.500,8.760,59.780
1074,45143.113000,1.468,34.403,254.023,-289.538,-80.187,462.461,-3.500,3.760,64.780
1075,45143.131000,-2.447,39.462,252.046,-290.448,-78.238,457.552,1.500,10.760,78.780
1076,45143.153000,1.468,28.332,255.012,-295.374,-80.131,460.595,-11.500,11.760,77.780
1077,45143.171000,-0.489,37.439,251.058,-291.435,-77.262,457.569,7.500,8.760,83.780
1078,45143.201000,-2.447,36.427,251.058,-292.361,-79.186,455.618,19.500,12.760,96.780
1079,45143.206000,-3.426,42.498,255.012,-288.430,-79.220,454.564,3.500,8.760,116.780
1080,45143.228000,0.489,36.427,253.035,-291.384,-73.387,452.641,-33.500,16.760,122.780
1081,45143.253000,0.489,34.403,253.035,-289.462,-73.407,454.576,9.500,11.760,118.780
1082,45143.271000,-1.468,41.486,251.058,-294.328,-76.265,454.665,24.500,12.760,103.780
1083,45143.293000,-3.426,39.462,253.035,-293.333,-72.401,451.690,-17.500,10.760,97.780
1084,45143.316000,-3.426,37.439,252.046,-300.226,-69.438,452.793,-13.500,14.760,84.780
1085,45143.330000,-2.447,38.451,253.035,-296.268,-72.374,451.742,11.500,6.760,78.780
1086,45143.345000,-3.426,46.545,251.058,-296.294,-73.344,453.712,35.500,8.760,67.780
1087,45143.390000,-3.426,48.569,252.046,-296.286,-70.440,451.740,-16.500,6.760,65.780
1088,45143.405000,-3.426,42.498,250.069,-293.306,-73.367,450.706,-36.500,9.760,60.780
1089,45143.430000,-2.447,30.356,254.023,-290.380,-72.427,450.653,-26.500,13.760,67.780
1090,45143.452000,-0.489,26.308,254.023,-293.306,-75.303,451.693,11.500,6.760,78.780
1091,45143.455000,-0.489,27.320,253.035,-297.247,-72.365,451.759,23.500,5.760,71.780
1092,45143.477000,-1.468,38.451,254.023,-290.379,-74.363,451.640,17.500,7.760,57.780
1093,45143.500000,-3.426,43.510,254.023,-294.295,-66.584,447.762,7.500,5.760,56.780
1094,45143.525000,-1.468,36.427,251.058,-298.209,-68.484,448.818,-29.500,6.760,59.780
1095,45143.547000,0.489,37.439,252.046,-294.295,-68.520,448.749,-3.500,11.760,75.780
1096,45143.565000,-0.489,39.462,252.046,-298.227,-66.549,448.816,13.500,4.760,70.780
1097,45143.582000,-1.468,41.486,254.023,-295.213,-69.475,445.813,3.500,5.760,41.780
1098,45143.607000,-3.426,43.510,250.069,-294.208,-68.515,443.825,0.500,0.760,18.780
1099,45143.622000,-3.426,41.486,254.023,-298.131,-67.512,443.893,-4.500,3.760,6.780
1100,45143.640000,-2.447,45.534,250.069,-295.212,-71.411,446.800,15.500,1.760,9.780
1101,45143.657000,-2.447,45.534,253.035,-292.250,-72.404,445.764,7.500,3.760,12.780
1102,45143.677000,-3.426,44.522,253.035,-299.119,-66.535,443.910,-2.500,0.760,12.780
1103,45143.702000,-2.447,43.510,251.058,-298.149,-67.513,444.878,-15.500,2.760,0.780
1104,45143.742000,-2.447,38.451,253.035,-296.209,-65.596,444.841,9.500,1.760,0.780
1105,45143.757000,-2.447,44.522,250.069,-300.071,-67.493,442.943,0.500,-1.240,-2.220
1106,45143.772000,-2.447,38.451,253.035,-292.199,-70.465,441.823,-1.500,3.760,1.780
1107,45143.787000,-1.468,30.356,254.023,-289.342,-67.593,444.722,-27.500,2.760,3.780
1108,45143.809000,-0.489,35.415,251.058,-298.149,-65.577,443.891,4.500,3.760,-0.220
1109,45143.830000,0.489,31.368,254.023,-294.190,-74.321,445.800,10.500,3.760,0.780
1110,45143.852000,-1.468,33.391,253.035,-292.295,-67.567,445.759,-6.500,1.760,-0.220
1111,45143.870000,-0.489,32.379,252.046,-298.166,-67.514,445.863,-6.500,3.760,1.780
1112,45143.889000,-1.468,34.403,254.023,-300.114,-68.463,445.898,15.500,2.760,0.780
1113,45143.912000,-0.489,32.379,253.035,-296.235,-66.565,446.812,12.500,4.760,3.780
1114,45143.932000,-0.489,32.379,253.035,-301.093,-66.519,444.929,6.500,6.760,1.780
1115,45143.957000,0.489,33.391,252.046,-292.225,-69.499,442.807,13.500,5.760,1.780
1116,45143.972000,-1.468,32.379,253.035,-294.208,-68.515,443.825,-4.500,0.760,0.780
1117,45143.987000,0.489,33.391,254.023,-297.161,-68.489,444.862,3.500,-1.240,1.780
1118,45144.2000,-0.489,33.391,253.035,-295.169,-70.441,443.844,5.500,-0.240,0.780
1119,45144.30000,-0.489,32.379,253.035,-291.282,-67.574,443.772,6.500,0.760,-0.220
1120,45144.45000,-2.447,36.427,252.046,-299.144,-67.505,445.880,13.500,5.760,-0.220
1121,45144.69000,-2.447,53.628,248.093,-300.062,-68.460,442.944,66.500,-3.240,-20.220
1122,45144.89000,-5.384,41.486,256.000,-299.144,-69.441,446.867,-35.500,3.760,-21.220
1123,45144.112000,-4.405,41.486,248.093,-297.144,-68.488,443.877,-21.500,-3.240,5.780
1124,45144.137000,-3.426,45.534,253.035,-296.148,-68.496,442.875,42.500,4.760,-3.220
1125,45144.154000,-3.426,43.510,253.035,-296.174,-69.465,444.845,-11.500,-2.240,-24.220
1126,45144.205000,-4.405,50.593,250.069,-296.121,-71.398,442.878,-9.500,0.760,-23.220
1127,45144.205000,-4.405,48.569,251.058,-297.152,-69.456,444.863,6.500,0.760,-22.220
1128,45144.229000,-6.363,50.593,251.058,-293.255,-71.429,446.765,8.500,0.760,-8.220
1129,45144.245000,-7.342,49.581,251.058,-301.093,-66.519,444.929,-9.500,0.760,-4.220
1130,45144.262000,-6.363,47.557,251.058,-299.144,-69.441,446.867,-6.500,-0.240,-5.220
1131,45144.287000,-4.405,46.545,252.046,-301.083,-71.358,446.903,5.500,1.760,-1.220
1132,45144.302000,-3.426,46.545,251.058,-301.084,-69.422,445.917,-2.500,4.760,-8.220
1133,45144.329000,-2.447,46.545,250.069,-293.220,-73.363,445.782,0.500,4.760,-13.220
1134,45144.347000,-2.447,34.403,255.012,-297.204,-69.459,447.817,-28.500,3.760,-11.220
1135,45144.375000,-1.468,43.510,250.069,-296.242,-73.341,450.758,5.500,1.760,-3.220
1136,45144.389000,-2.447,40.474,252.046,-295.272,-72.382,450.740,41.500,9.760,3.780
1137,45144.414000,-4.405,48.569,252.046,-294.346,-70.458,452.690,0.500,-0.240,-3.220
1138,45144.437000,-2.447,49.581,248.093,-292.382,-65.636,449.696,35.500,2.760,-15.220
1139,45144.452000,-1.468,37.439,255.012,-303.187,-70.380,454.815,-31.500,-1.240,-15.220
1140,45144.469000,-0.489,39.462,250.069,-298.242,-72.358,452.761,2.500,3.760,5.780
1141,45144.487000,-2.447,30.356,256.000,-300.296,-67.506,455.745,5.500,8.760,-12.220
1142,45144.520000,-0.489,43.510,249.081,-302.262,-66.520,455.779,46.500,-4.240,-26.220
1143,45144.540000,-1.468,41.486,254.023,-300.243,-71.374,454.764,-34.500,4.760,-57.220
1144,45144.552000,-4.405,35.415,254.023,-302.252,-71.359,457.753,-36.500,-6.240,-65.220
1145,45144.569000,-2.447,36.427,251.058,-298.329,-72.362,457.685,26.500,-4.240,-57.220
1146,45144.589000,3.426,30.356,256.988,-297.368,-72.372,458.652,6.500,-4.240,-72.220
1147,45144.624000,1.468,30.356,253.035,-293.444,-75.311,459.571,-35.500,-7.240,-79.220
1148,45144.634000,-1.468,27.320,255.012,-302.251,-75.231,459.726,10.500,-8.240,-88.220
1149,45144.652000,-0.489,34.403,251.058,-303.291,-72.322,461.710,27.500,-13.240,-100.220
1150,45144.674000,0.489,33.391,255.012,-301.306,-77.178,462.665,-30.500,-11.240,-97.220
1151,45144.700000,0.489,27.320,254.023,-304.303,-76.186,465.671,-5.500,-8.240,-95.220
1152,45144.714000,-0.489,30.356,251.058,-296.414,-77.222,462.579,21.500,-14.240,-96.220
1153,45144.734000,3.426,25.296,256.000,-298.388,-77.205,463.598,5.500,-11.240,-90.220
1154,45144.764000,1.468,19.225,256.000,-298.371,-79.140,463.600,-40.500,-2.240,-84.220
1155,45144.782000,5.384,22.261,252.046,-295.426,-80.134,463.549,30.500,-6.240,-85.220
1156,45144.799000,3.426,21.249,256.988,-302.363,-78.141,467.607,7.500,-12.240,-99.220
1157,45144.817000,4.405,22.261,254.023,-304.345,-79.093,469.613,-14.500,-1.240,-99.220
1158,45144.842000,2.447,22.261,256.000,-300.413,-81.063,469.545,-0.500,-21.240,-88.220
1159,45144.865000,6.363,10.119,256.988,-303.376,-78.134,469.594,-25.500,0.760,-76.220
1160,45144.882000,7.342,10.119,254.023,-303.384,-81.038,471.567,-26.500,-12.240,-62.220
1161,45144.899000,8.321,4.047,256.988,-295.547,-80.141,470.443,-4.500,-2.240,-59.220
1162,45144.924000,9.300,1.012,256.988,-303.392,-80.071,471.566,-13.500,-5.240,-40.220
1163,45144.942000,4.405,6.071,258.965,-298.456,-84.952,471.484,-2.500,-3.240,-32.220
1164,45144.967000,0.489,38.451,251.058,-294.559,-83.053,471.413,36.500,2.760,-19.220
1165,45144.987000,-2.447,38.451,253.035,-304.327,-81.027,469.615,82.500,3.760,6.780
1166,45145.17000,-1.468,31.368,256.000,-301.418,-82.023,471.533,-103.500,-2.240,-1.220
1167,45145.34000,-0.489,37.439,248.093,-297.512,-84.963,473.436,-45.500,-5.240,-4.220
1168,45145.45000,-2.447,29.344,256.988,-296.508,-80.131,469.475,14.500,-10.240,0.780
1169,45145.64000,-1.468,36.427,251.058,-305.262,-81.984,467.663,-42.500,-14.240,-3.220
1170,45145.84000,-0.489,31.368,252.046,-297.495,-83.026,471.465,-64.500,-8.240,2.780
1171,45145.104000,-1.468,33.391,252.046,-299.427,-80.103,468.542,-41.500,-11.240,-0.220
1172,45145.124000,1.468,31.368,253.035,-298.517,-80.116,472.464,-15.500,-11.240,0.780
1173,45145.147000,1.468,15.178,258.965,-290.629,-81.152,469.372,-75.500,-1.240,23.780
1174,45145.169000,2.447,18.213,252.046,-300.474,-80.098,472.499,-51.500,-3.240,49.780
1175,45145.192000,6.363,14.166,256.000,-301.444,-79.121,471.530,14.500,9.760,55.780
1176,45145.214000,3.426,17.202,254.023,-295.590,-83.047,474.385,-2.500,0.760,55.780
1177,45145.237000,5.384,12.142,256.000,-299.514,-78.173,472.479,-45.500,4.760,47.780
1178,45145.254000,5.384,7.083,255.012,-289.729,-78.262,472.306,-33.500,4.760,46.780
1179,45145.284000,3.426,12.142,255.012,-294.595,-79.183,471.409,2.500,4.760,40.780
1180,45145.299000,6.363,16.190,256.000,-296.473,-84.001,469.479,24.500,1.760,28.780
1181,45145.329000,2.447,23.273,255.012,-295.504,-79.171,467.487,18.500,0.760,1.780
1182,45145.345000,3.426,23.273,255.012,-291.547,-80.172,465.450,6.500,-3.240,-29.220
1183,45145.351000,-0.489,29.344,253.035,-296.491,-80.130,468.490,-1.500,-10.240,-54.220
1184,45145.373000,1.468,29.344,252.046,-298.465,-82.049,470.496,-16.500,-9.240,-43.220
1185,45145.398000,4.405,19.225,255.012,-293.548,-77.253,466.466,-16.500,-0.240,-23.220
1186,45145.413000,5.384,22.261,252.046,-287.668,-78.273,466.363,-27.500,-3.240,-25.220
1187,45145.436000,4.405,24.285,254.023,-297.471,-76.250,466.534,23.500,-5.240,-18.220
1188,45145.458000,2.447,25.296,255.012,-289.607,-80.190,466.400,10.500,-5.240,-28.220
1189,45145.481000,2.447,29.344,253.035,-294.492,-77.242,464.514,-17.500,-2.240,-39.220
1190,45145.498000,-0.489,28.332,252.046,-291.512,-80.170,463.480,22.500,-5.240,-43.220
1191,45145.518000,-2.447,37.439,253.035,-291.460,-80.167,460.526,25.500,-6.240,-25.220
1192,45145.538000,-1.468,34.403,251.058,-295.435,-79.167,463.548,-17.500,0.760,-4.220
1193,45145.561000,-0.489,39.462,251.058,-295.383,-79.164,460.594,12.500,-1.240,18.780
1194,45145.586000,0.489,43.510,250.069,-294.370,-81.107,459.594,31.500,1.760,25.780
1195,45145.621000,-0.489,33.391,255.012,-293.418,-78.213,459.574,-22.500,6.760,36.780
1196,45145.621000,-0.489,38.451,250.069,-288.482,-79.223,457.519,-9.500,2.760,39.780
1197,45145.636000,-1.468,37.439,256.000,-286.525,-79.241,457.484,14.500,5.760,33.780
1198,45145.656000,-0.489,34.403,254.023,-291.453,-75.327,457.567,-16.500,5.760,42.780
1199,45145.681000,-1.468,38.451,252.046,-291.417,-79.197,457.571,6.500,4.760,59.780
1200,45145.698000,-3.426,39.462,252.046,-292.414,-77.253,457.586,8.500,8.760,62.780
1201,45145.718000,-1.468,43.510,251.058,-296.293,-77.215,455.686,5.500,8.760,72.780
1202,45145.741000,-3.426,45.534,253.035,-295.315,-75.288,454.682,-7.500,9.760,67.780
1203,45145.766000,-4.405,47.557,251.058,-292.353,-76.282,453.646,11.500,7.760,67.780
1204,45145.783000,-5.384,44.522,254.023,-293.350,-74.338,453.661,-10.500,8.760,66.780
1205,45145.803000,-1.468,38.451,252.046,-298.268,-73.327,454.732,-23.500,12.760,76.780
1206,45145.828000,-1.468,34.403,255.012,-290.414,-74.364,453.609,3.500,8.760,71.780
1207,45145.851000,-0.489,42.498,251.058,-293.315,-72.400,450.705,18.500,9.760,68.780
1208,45145.873000,-2.447,33.391,255.012,-295.237,-74.316,449.757,-30.500,9.760,63.780
1209,45145.903000,-3.426,38.451,252.046,-289.383,-76.306,451.624,5.500,6.760,65.780
1210,45145.923000,-1.468,40.474,251.058,-291.341,-74.353,450.672,14.500,15.760,75.780
1211,45145.933000,1.468,29.344,256.988,-297.238,-71.397,450.773,-37.500,10.760,72.780
1212,45145.948000,-2.447,40.474,249.081,-293.307,-71.432,449.719,5.500,9.760,81.780
1213,45145.981000,-2.447,35.415,254.023,-298.226,-70.421,450.790,20.500,8.760,71.780
1214,45145.983000,-2.447,43.510,250.069,-298.199,-71.387,449.806,-1.500,5.760,60.780
1215,45146.11000,-2.447,37.439,252.046,-293.299,-70.463,448.733,-16.500,5.760,43.780
1216,45146.36000,-3.426,38.451,252.046,-298.199,-71.387,449.806,10.500,2.760,36.780
1217,45146.53000,-0.489,41.486,253.035,-293.281,-70.462,447.749,11.500,2.760,27.780
1218,45146.76000,-2.447,37.439,255.012,-292.268,-72.405,446.749,-16.500,1.760,15.780
1219,45146.101000,0.489,40.474,251.058,-293.281,-70.462,447.749,-0.500,3.760,13.780
1220,45146.116000,-1.468,37.439,253.035,-296.182,-72.369,446.818,6.500,-2.240,-2.220
1221,45146.136000,-2.447,42.498,253.035,-292.285,-72.406,447.733,2.500,-1.240,-9.220
1222,45146.166000,-5.384,42.498,252.046,-295.230,-69.476,446.798,-1.500,0.760,-11.220
1223,45146.186000,-4.405,44.522,252.046,-297.195,-70.427,447.818,9.500,-1.240,-4.220
1224,45146.206000,-4.405,41.486,252.046,-292.276,-75.309,448.721,-10.500,3.760,1.780
1225,45146.226000,0.489,32.379,254.023,-296.191,-71.402,446.817,-23.500,3.760,-2.220
1226,45146.241000,-0.489,33.391,252.046,-294.251,-71.421,447.767,39.500,8.760,2.780
1227,45146.263000,-0.489,33.391,253.035,-292.286,-70.470,446.747,38.500,9.760,-1.220
1228,45146.273000,-0.489,32.379,252.046,-293.229,-72.395,445.781,7.500,7.760,1.780
1229,45146.291000,-0.489,31.368,252.046,-298.182,-71.386,448.821,-6.500,6.760,0.780
1230,45146.311000,-0.489,34.403,253.035,-296.225,-71.404,448.786,42.500,9.760,-1.220
1231,45146.341000,-3.426,38.451,253.035,-299.135,-70.408,446.868,8.500,3.760,-0.220
1232,45146.361000,-5.384,54.640,247.104,-297.212,-72.364,449.789,31.500,-0.240,2.780
1233,45146.381000,-5.384,47.557,254.023,-296.139,-71.399,443.863,38.500,8.760,16.780
1234,45146.400000,-5.384,47.557,250.069,-298.182,-71.386,448.821,-35.500,3.760,26.780
1235,45146.421000,-2.447,53.628,249.081,-295.177,-71.409,444.830,14.500,6.760,12.780
1236,45146.443000,-6.363,57.676,252.046,-292.259,-71.437,445.763,56.500,3.760,4.780
1237,45146.463000,-7.342,51.605,252.046,-294.199,-71.418,444.813,3.500,-1.240,-7.220
1238,45146.483000,-6.363,54.640,249.081,-298.183,-69.450,447.834,-45.500,3.760,-8.220
1239,45146.506000,-7.342,56.664,251.058,-297.213,-70.428,448.803,33.500,3.760,1.780
1240,45146.526000,-5.384,48.569,252.046,-292.354,-72.410,451.672,5.500,-0.240,2.780
1241,45146.548000,-6.363,42.498,252.046,-295.325,-68.514,451.720,-62.500,5.760,-4.220
1242,45146.571000,-7.342,54.640,246.116,-294.303,-69.488,449.735,35.500,0.760,0.780
1243,45146.591000,-4.405,47.557,254.023,-299.204,-70.412,450.807,43.500,6.760,4.780
1244,45146.606000,-4.405,48.569,252.046,-294.311,-72.392,451.707,-19.500,3.760,2.780
1245,45146.631000,-3.426,38.451,252.046,-294.363,-72.395,454.661,-37.500,5.760,1.780
1246,45146.671000,-2.447,39.462,251.058,-292.380,-71.444,452.656,37.500,2.760,-8.220
1247,45146.686000,-1.468,39.462,254.023,-298.234,-71.389,451.775,3.500,3.760,-24.220
1248,45146.701000,-2.447,38.451,252.046,-297.307,-73.337,455.699,-8.500,-5.240,-22.220
1249,45146.718000,-2.447,34.403,252.046,-296.320,-74.313,455.683,9.500,2.760,-21.220
1250,45146.731000,1.468,30.356,253.035,-300.269,-72.344,456.735,-14.500,2.760,-20.220
1251,45146.756000,-0.489,27.320,254.023,-295.393,-74.325,458.620,-1.500,2.760,-8.220
1252,45146.776000,3.426,34.403,253.035,-300.347,-71.380,460.673,15.500,-4.240,-33.220
1253,45146.798000,-1.468,25.296,253.035,-296.388,-76.253,460.608,9.500,-9.240,-28.220
1254,45146.818000,0.489,24.285,255.012,-294.440,-75.303,460.573,-32.500,-4.240,-36.220
1255,45146.841000,0.489,34.403,251.058,-297.367,-76.244,460.626,17.500,0.760,-38.220
1256,45146.866000,2.447,24.285,256.000,-299.350,-75.260,461.644,27.500,-3.240,-38.220
1257,45146.878000,1.468,24.285,256.000,-293.487,-78.217,463.513,-59.500,-9.240,-45.220
1258,45146.903000,0.489,21.249,253.035,-299.411,-72.359,463.611,1.500,1.760,-49.220
1259,45146.918000,-0.489,29.344,253.035,-302.303,-73.298,461.694,53.500,-5.240,-42.220
1260,45146.936000,2.447,19.225,256.000,-298.440,-77.208,466.552,-54.500,-0.240,-34.220
1261,45146.968000,3.426,16.190,255.012,-296.449,-75.288,463.562,-53.500,0.760,-30.220
1262,45146.986000,3.426,22.261,252.046,-299.463,-74.298,467.552,27.500,-2.240,-28.220
1263,45147.6000,1.468,23.273,257.977,-297.427,-77.215,464.566,22.500,-7.240,-30.220
1264,45147.33000,3.426,26.308,254.023,-297.540,-76.254,470.473,-13.500,-2.240,-33.220
1265,45147.53000,3.426,22.261,255.012,-302.311,-78.138,464.653,-14.500,-5.240,-38.220
1266,45147.63000,3.426,21.249,255.012,-300.406,-78.159,467.573,11.500,-2.240,-39.220
1267,45147.86000,5.384,23.273,255.012,-300.432,-75.257,467.570,2.500,-2.240,-47.220
1268,45147.106000,2.447,25.296,254.023,-302.380,-78.142,468.592,6.500,-5.240,-55.220
1269,45147.128000,1.468,30.356,250.069,-297.488,-76.251,467.519,15.500,-8.240,-54.220
1270,45147.156000,0.489,28.332,255.012,-301.419,-78.152,469.560,-1.500,-8.240,-56.220
1271,45147.171000,2.447,27.320,253.035,-294.560,-79.182,469.440,-19.500,-4.240,-47.220
1272,45147.187000,0.489,23.273,256.000,-296.526,-78.196,469.473,-4.500,-1.240,-40.220
1273,45147.202000,0.489,34.403,251.058,-298.457,-79.145,468.524,41.500,-4.240,-31.220
1274,45147.232000,-0.489,34.403,256.000,-294.560,-81.117,470.426,-12.500,-4.240,-28.220
1275,45147.244000,-2.447,39.462,252.046,-301.383,-82.021,469.564,4.500,-3.240,-21.220
1276,45147.267000,-2.447,39.462,252.046,-301.384,-78.150,467.590,7.500,-1.240,-20.220
1277,45147.282000,-2.447,38.451,255.012,-296.509,-78.195,468.488,-11.500,-5.240,-20.220
1278,45147.307000,-2.447,36.427,252.046,-303.331,-82.971,469.599,-17.500,-3.240,-21.220
1279,45147.327000,-3.426,36.427,253.035,-300.413,-81.063,469.545,7.500,-4.240,-17.220
1280,45147.349000,0.489,33.391,252.046,-301.410,-79.119,469.561,-13.500,-0.240,-7.220
1281,45147.367000,4.405,23.273,256.000,-299.443,-82.040,470.514,-40.500,-2.240,-16.220
1282,45147.397000,5.384,16.190,254.023,-299.470,-81.074,471.498,-40.500,-3.240,-8.220
1283,45147.414000,7.342,7.083,257.977,-300.422,-82.031,470.531,-43.500,-12.240,-8.220
1284,45147.429000,-1.468,37.439,251.058,-302.370,-81.045,469.580,108.500,-13.240,9.780
1285,45147.470000,-0.489,35.415,252.046,-302.344,-82.012,468.596,-71.500,-2.240,-8.220
1286,45147.486000,-0.489,30.356,258.965,-303.401,-79.103,471.565,-113.500,-15.240,-0.220
1287,45147.493000,-1.468,37.439,245.127,-301.444,-79.121,471.530,-67.500,-11.240,-4.220
1288,45147.516000,0.489,25.296,256.988,-294.568,-82.086,471.412,13.500,-7.240,29.780
1289,45147.541000,0.489,23.273,256.000,-304.363,-79.094,470.597,-72.500,2.760,64.780
1290,45147.558000,0.489,23.273,253.035,-297.522,-78.188,470.475,-11.500,9.760,108.780
1291,45147.581000,3.426,17.202,254.023,-295.617,-78.209,473.395,10.500,13.760,132.780
1292,45147.596000,2.447,27.320,255.012,-301.428,-77.184,469.559,7.500,14.760,129.780
1293,45147.626000,3.426,22.261,255.012,-289.738,-77.294,472.305,-24.500,15.760,108.780
1294,45147.641000,3.426,22.261,255.012,-302.424,-75.241,469.574,-24.500,9.760,81.780
1295,45147.661000,3.426,18.213,255.012,-304.433,-75.226,472.563,-24.500,8.760,67.780
1296,45147.686000,4.405,14.166,255.012,-294.605,-74.345,469.435,-14.500,5.760,57.780
1297,45147.711000,6.363,18.213,255.012,-298.510,-75.276,469.505,-26.500,7.760,48.780
1298,45147.726000,2.447,19.225,255.012,-290.760,-74.384,473.305,13.500,2.760,53.780
1299,45147.746000,3.426,23.273,254.023,-292.631,-74.361,468.415,4.500,5.760,45.780
1300,45147.761000,2.447,24.285,254.023,-296.606,-71.425,470.451,-0.500,4.760,27.780
1301,45147.781000,2.447,21.249,253.035,-300.493,-74.292,470.523,-1.500,0.760,21.780
1302,45147.803000,2.447,20.237,255.012,-295.531,-76.268,467.484,-36.500,-0.240,-6.220
1303,45147.828000,3.426,20.237,253.035,-300.477,-68.484,466.578,-5.500,-5.240,0.780
1304,45147.851000,7.342,18.213,257.977,-296.572,-69.488,467.495,-0.500,4.760,-9.220
1305,45147.868000,0.489,33.391,252.046,-301.368,-74.277,464.632,4.500,-9.240,-28.220
1306,45147.885000,-0.489,37.439,253.035,-299.428,-74.296,465.582,59.500,-11.240,-70.220
1307,45147.910000,1.468,17.202,258.965,-297.506,-72.380,466.530,-60.500,-7.240,-77.220
1308,45147.928000,3.426,9.107,252.046,-290.614,-71.472,463.454,-98.500,-8.240,-44.220
1309,45147.936000,6.363,6.071,256.000,-292.544,-74.356,463.491,39.500,4.760,-9.220
1310,45147.966000,6.363,21.249,254.023,-297.446,-71.409,462.590,58.500,-3.240,11.780
1311,45147.986000,4.405,32.379,254.023,-293.462,-75.312,460.555,34.500,-1.240,-6.220
1312,45148.6000,-0.489,38.451,252.046,-297.437,-74.312,463.578,5.500,-5.240,-15.220
1313,45148.26000,-2.447,40.474,251.058,-295.411,-70.454,457.631,7.500,-1.240,-16.220
1314,45148.55000,-3.426,34.403,254.023,-298.285,-75.264,456.703,-14.500,0.760,4.780
1315,45148.86000,-3.426,41.486,249.081,-291.471,-73.392,457.565,21.500,1.760,42.780
1316,45148.101000,-0.489,40.474,253.035,-287.548,-74.395,457.496,4.500,7.760,61.780
1317,45148.116000,-0.489,43.510,251.058,-293.376,-73.371,454.645,-0.500,6.760,71.780
1318,45148.136000,-0.489,46.545,251.058,-290.371,-75.330,451.641,26.500,5.760,60.780
1319,45148.153000,-4.405,43.510,253.035,-297.273,-69.463,451.756,-28.500,7.760,50.780
1320,45148.178000,-4.405,40.474,250.069,-286.510,-69.561,451.566,-23.500,4.760,60.780
1321,45148.201000,-3.426,40.474,253.035,-292.311,-71.440,448.717,-8.500,11.760,69.780
1322,45148.216000,-4.405,46.545,253.035,-293.377,-69.500,452.672,30.500,9.760,84.780
1323,45148.241000,-3.426,44.522,253.035,-293.386,-66.597,451.684,-1.500,11.760,73.780
1324,45148.253000,-4.405,47.557,250.069,-293.342,-69.498,450.702,-6.500,5.760,44.780
1325,45148.276000,-4.405,45.534,252.046,-293.307,-69.496,448.733,2.500,4.760,27.780
1326,45148.288000,-6.363,43.510,254.023,-293.264,-68.526,445.777,-9.500,0.760,34.780
1327,45148.318000,-3.426,41.486,252.046,-290.381,-68.555,448.680,-12.500,3.760,45.780
1328,45148.326000,-3.426,36.427,253.035,-298.165,-69.449,446.849,0.500,6.760,58.780
1329,45148.356000,0.489,32.379,254.023,-292.364,-67.571,449.698,-8.500,9.760,63.780
1330,45148.386000,-0.489,37.439,252.046,-293.221,-69.491,443.809,-1.500,4.760,60.780
1331,45148.416000,-3.426,40.474,252.046,-298.149,-67.513,444.878,18.500,3.760,60.780
1332,45148.430000,-3.426,38.451,254.023,-296.244,-65.598,446.811,-7.500,3.760,52.780
1333,45148.446000,-2.447,40.474,250.069,-292.321,-66.601,446.743,-5.500,4.760,52.780
1334,45148.467000,-1.468,35.415,254.023,-292.278,-65.630,443.787,8.500,5.760,54.780
1335,45148.487000,-1.468,40.474,252.046,-296.226,-67.532,446.813,10.500,4.760,52.780
1336,45148.509000,-2.447,43.510,251.058,-293.231,-64.652,441.834,14.500,4.760,35.780
1337,45148.529000,-3.426,46.545,251.058,-301.093,-66.519,444.929,11.500,4.760,27.780
1338,45148.544000,-5.384,50.593,251.058,-300.088,-67.494,443.928,6.500,3.760,22.780
1339,45148.574000,-6.363,55.652,250.069,-292.304,-64.664,444.771,13.500,3.760,21.780
1340,45148.592000,-4.405,54.640,250.069,-292.295,-65.631,444.772,5.500,4.760,15.780
1341,45148.614000,0.489,38.451,254.023,-300.141,-65.561,445.895,-54.500,14.760,11.780
1342,45148.622000,0.489,27.320,255.012,-290.251,-67.580,440.801,-25.500,3.760,-4.220
1343,45148.667000,-1.468,37.439,248.093,-299.093,-65.566,441.939,84.500,14.760,1.780
1344,45148.701000,-0.489,29.344,259.954,-292.217,-66.595,440.834,-23.500,4.760,0.780
1345,45148.701000,-0.489,35.415,253.035,-295.214,-65.604,443.839,-48.500,4.760,-1.220
1346,45148.716000,-0.489,32.379,252.046,-298.132,-65.576,442.907,36.500,10.760,1.780
1347,45148.733000,0.489,33.391,254.023,-298.114,-65.575,441.922,28.500,5.760,-1.220
1348,45148.748000,-0.489,35.415,253.035,-295.170,-68.505,442.858,-11.500,8.760,0.780
1349,45148.773000,-4.405,48.569,250.069,-298.185,-61.707,443.887,56.500,-4.240,-15.220
1350,45148.793000,-6.363,60.711,247.104,-301.041,-66.516,441.975,54.500,2.760,-28.220
1351,45148.813000,-7.342,60.711,255.012,-297.153,-67.521,443.876,-30.500,-8.240,-42.220
1352,45148.834000,-9.300,62.735,246.116,-299.128,-63.632,442.922,-15.500,4.760,-57.220
1353,45148.859000,-6.363,53.628,251.058,-293.256,-67.557,444.792,-8.500,-2.240,-60.220
1354,45148.872000,-6.363,54.640,251.058,-295.135,-68.503,440.888,-9.500,-5.240,-55.220
1355,45148.897000,-4.405,49.581,250.069,-296.182,-70.434,445.831,-15.500,2.760,-51.220
1356,45148.927000,-3.426,41.486,253.035,-298.131,-69.448,444.880,-23.500,-6.240,-53.220
1357,45148.942000,-3.426,43.510,251.058,-296.208,-69.467,446.815,19.500,-2.240,-55.220
1358,45148.962000,-3.426,42.498,253.035,-300.132,-66.529,445.896,12.500,-0.240,-47.220
1359,45148.982000,-5.384,46.545,252.046,-293.246,-72.396,446.766,7.500,-3.240,-37.220
1360,45148.987000,-2.447,36.427,254.023,-291.325,-68.544,446.727,-14.500,5.760,-18.220
1361,45149.12000,-3.426,43.510,250.069,-299.204,-70.412,450.807,8.500,-0.240,-23.220
1362,45149.37000,-3.426,38.451,253.035,-295.281,-71.415,450.739,27.500,1.760,-25.220
1363,45149.57000,-3.426,44.522,252.046,-297.256,-69.462,450.771,-6.500,1.760,-33.220
1364,45149.79000,-2.447,44.522,250.069,-294.311,-72.392,451.707,16.500,-2.240,-26.220
1365,45149.97000,-2.447,39.462,254.023,-300.252,-68.471,453.776,15.500,0.760,-31.220
1366,45149.127000,-2.447,39.462,251.058,-295.377,-70.452,455.661,-8.500,-2.240,-38.220
1367,45149.147000,-1.468,34.403,256.000,-300.243,-69.439,453.777,-24.500,-0.240,-30.220
1368,45149.167000,-2.447,38.451,251.058,-296.293,-75.279,454.699,33.500,-3.240,-25.220
1369,45149.184000,-1.468,35.415,255.012,-301.213,-70.397,453.796,-0.500,1.760,-33.220
1370,45149.207000,0.489,38.451,251.058,-302.252,-69.424,456.766,-7.500,-3.240,-35.220
1371,45149.224000,2.447,27.320,256.000,-296.372,-74.316,458.637,-4.500,-1.240,-39.220
1372,45149.244000,-1.468,31.368,252.046,-298.355,-73.332,459.655,-13.500,-4.240,-53.220
1373,45149.267000,4.405,24.285,254.023,-304.226,-71.343,458.772,-3.500,-3.240,-46.220
1374,45149.292000,4.405,20.237,255.012,-299.359,-74.292,461.643,1.500,-2.240,-38.220
1375,45149.309000,4.405,23.273,253.035,-296.423,-74.319,461.591,1.500,-1.240,-40.220
1376,45149.339000,3.426,21.249,255.012,-301.377,-71.374,463.644,-1.500,-3.240,-52.220
1377,45149.357000,1.468,25.296,254.023,-303.325,-72.324,463.680,12.500,-6.240,-49.220
1378,45149.372000,0.489,25.296,254.023,-300.371,-76.221,464.617,-4.500,-7.240,-40.220
1379,45149.387000,1.468,23.273,254.023,-304.277,-75.217,463.700,-6.500,-5.240,-30.220
1380,45149.407000,2.447,24.285,255.012,-299.445,-76.233,467.554,18.500,1.760,-25.220
1381,45149.432000,0.489,25.296,254.023,-295.531,-74.333,466.498,-16.500,-1.240,-29.220
1382,45149.454000,2.447,28.332,254.023,-299.453,-79.137,469.526,10.500,-6.240,-25.220
1383,45149.472000,0.489,27.320,256.000,-302.363,-76.205,466.621,11.500,-2.240,-26.220
1384,45149.492000,2.447,29.344,253.035,-296.492,-76.259,466.517,-9.500,0.760,-16.220
1385,45149.509000,3.426,16.190,256.988,-296.501,-75.291,466.516,-17.500,-0.240,-11.220
1386,45149.532000,4.405,25.296,253.035,-305.376,-77.151,471.597,13.500,-2.240,-12.220
1387,45149.554000,3.426,19.225,256.000,-302.414,-78.144,470.562,30.500,-0.240,-10.220
1388,45149.572000,4.405,21.249,256.000,-304.355,-76.189,468.625,-19.500,2.760,-23.220
1389,45149.582000,1.468,26.308,252.046,-298.466,-78.178,468.523,11.500,-1.240,-22.220
1390,45149.612000,2.447,20.237,257.977,-300.467,-75.259,469.539,16.500,-5.240,-23.220
1391,45149.632000,2.447,24.285,254.023,-300.449,-79.129,470.528,-35.500,-3.240,-20.220
1392,45149.654000,1.468,19.225,255.012,-302.406,-79.111,470.563,11.500,1.760,-9.220
1393,45149.677000,4.405,29.344,252.046,-298.474,-81.082,470.495,39.500,-2.240,-4.220
1394,45149.702000,0.489,29.344,255.012,-295.566,-76.270,469.454,-18.500,-0.240,-16.220
1395,45149.718000,0.489,30.356,252.046,-303.393,-78.135,470.579,-18.500,-4.240,-12.220
1396,45149.743000,0.489,27.320,256.000,-303.376,-78.134,469.594,-5.500,0.760,-12.220
1397,45149.756000,1.468,28.332,255.012,-306.355,-77.142,471.615,4.500,-1.240,-9.220
1398,45149.783000,1.468,26.308,254.023,-300.423,-78.160,468.558,-9.500,0.760,-12.220
1399,45149.798000,1.468,30.356,254.023,-299.462,-78.170,469.525,2.500,-1.240,-20.220
1400,45149.838000,-0.489,32.379,253.035,-304.424,-76.193,472.564,18.500,3.760,-18.220
1401,45149.853000,-0.489,33.391,256.000,-302.484,-78.148,474.501,-3.500,-0.240,-16.220
1402,45149.868000,-0.489,35.415,251.058,-296.543,-80.133,471.445,-1.500,4.760,-25.220
1403,45149.886000,-0.489,33.391,252.046,-301.419,-78.152,469.560,-13.500,7.760,-30.220
1404,45149.908000,-1.468,33.391,254.023,-305.376,-79.087,472.584,1.500,4.760,-32.220
1405,45149.928000,2.447,31.368,253.035,-301.471,-78.155,472.514,-19.500,8.760,-23.220
1406,45149.936000,-3.426,31.368,254.023,-304.406,-78.128,472.566,-110.500,-8.240,-6.220
1407,45149.963000,1.468,38.451,248.093,-302.397,-78.143,469.577,74.500,-1.240,-2.220
1408,45149.986000,1.468,29.344,258.965,-297.522,-80.124,471.462,-47.500,-1.240,-20.220
