Sample, Time, ACCX, ACCY, ACCZ, MAGX, MAGY, MAGZ, GYRX, GYRY, GYRZ
0,45120.975000,-31.387,7.139,256.000,10.166,-274.233,433.031,0.780,1.620,-0.960
1,45120.997000,-32.368,6.120,252.970,17.066,-276.853,433.800,-1.220,0.620,-0.960
2,45121.15000,-30.406,7.139,257.010,12.819,-275.983,430.955,-0.220,-0.380,-0.960
3,45121.38000,-34.330,5.100,252.970,17.123,-278.599,431.806,-0.220,1.620,-0.960
4,45121.55000,-30.406,7.139,257.010,14.494,-275.111,432.892,-2.220,0.620,-0.960
5,45121.78000,-32.368,5.100,253.980,13.660,-277.723,431.917,-1.220,-0.380,-0.960
6,45121.100000,-33.349,5.100,252.970,17.147,-276.861,430.817,-0.220,0.620,0.040
7,45121.117000,-31.387,7.139,257.010,12.793,-276.851,431.947,-0.220,-0.380,0.040
8,45121.140000,-34.330,6.120,251.961,17.224,-274.258,427.841,-0.220,-0.380,0.040
9,45121.155000,-30.406,7.139,258.020,17.119,-275.988,431.814,-0.220,-0.380,0.040
10,45121.175000,-32.368,5.100,253.980,13.654,-274.242,431.928,-1.220,0.620,0.040
11,45121.203000,-32.368,5.100,252.970,12.790,-275.111,431.952,0.780,1.620,0.040
12,45121.223000,-30.406,6.120,257.010,17.092,-275.985,432.808,-2.220,0.620,0.040
13,45121.238000,-32.368,5.100,254.990,12.006,-275.117,428.996,-2.220,-0.380,-0.960
14,45121.273000,-30.406,5.100,254.990,16.280,-275.989,430.846,-0.220,1.620,0.040
15,45121.280000,-32.368,5.100,253.980,16.259,-279.468,431.831,-0.220,1.620,0.040
16,45121.295000,-33.349,6.120,252.970,13.654,-274.242,431.928,-1.220,0.620,-0.960
17,45121.320000,-31.387,6.120,257.010,11.064,-277.719,431.999,-0.220,0.620,0.040
18,45121.343000,-34.330,5.100,251.961,11.088,-275.981,431.009,-0.220,0.620,-0.960
19,45121.360000,-30.406,7.139,257.010,9.383,-275.110,430.072,-2.220,1.620,0.040
20,45121.378000,-33.349,6.120,253.980,10.219,-273.368,431.044,-0.220,0.620,-0.960
21,45121.403000,-31.387,7.139,253.980,14.547,-274.246,430.906,0.780,0.620,-0.960
22,45121.418000,-30.406,5.100,256.000,11.197,-275.991,427.031,0.780,0.620,0.040
23,45121.440000,-32.368,5.100,254.990,14.580,-277.730,429.901,-1.220,0.620,0.040
24,45121.457000,-30.406,7.139,257.010,11.926,-275.979,431.977,-1.220,1.620,-0.960
25,45121.480000,-32.368,5.100,253.980,14.498,-277.722,432.885,-0.220,1.620,0.040
26,45121.502000,-32.368,6.120,256.000,12.898,-274.251,427.977,-0.220,0.620,1.040
27,45121.520000,-30.406,6.120,254.990,15.385,-274.244,431.873,-1.220,0.620,0.040
28,45121.528000,-32.368,6.120,253.980,17.041,-278.591,434.789,-0.220,0.620,0.040
29,45121.548000,-29.425,6.120,254.990,12.819,-275.983,430.955,-1.220,0.620,0.040
30,45121.584000,-33.349,6.120,252.970,10.117,-277.710,435.009,-0.220,0.620,-0.960
31,45121.596000,-30.406,6.120,253.980,13.680,-273.374,430.936,-0.220,0.620,-0.960
32,45121.616000,-30.406,6.120,254.990,11.090,-276.851,431.007,-1.220,0.620,-0.960
33,45121.641000,-33.349,5.100,252.970,11.087,-275.110,431.012,-2.220,0.620,-0.960
34,45121.659000,-31.387,7.139,256.000,10.250,-275.982,430.042,-0.220,0.620,0.040
35,45121.684000,-32.368,5.100,252.970,13.659,-276.853,431.920,-0.220,0.620,-0.960
36,45121.699000,-30.406,6.120,256.000,11.955,-276.852,430.980,-1.220,1.620,0.040
37,45121.736000,-29.425,5.100,254.990,15.364,-277.723,432.857,-1.220,0.620,0.040
38,45121.751000,-32.368,5.100,252.970,9.278,-276.840,434.044,-0.220,-0.380,0.040
39,45121.762000,-30.406,7.139,254.990,13.633,-277.720,432.912,-0.220,0.620,0.040
40,45121.782000,-32.368,4.080,252.970,11.926,-275.979,431.977,-1.220,1.620,0.040
41,45121.802000,-30.406,7.139,254.990,10.166,-274.233,433.031,-2.220,-0.380,1.040
42,45121.825000,-31.387,6.120,252.970,12.795,-277.722,431.944,0.780,0.620,0.040
43,45121.846000,-32.368,5.100,252.970,11.142,-275.986,429.020,-0.220,0.620,1.040
44,45121.875000,-30.406,6.120,257.010,16.199,-275.981,433.830,-2.220,0.620,0.040
45,45121.878000,-33.349,5.100,251.961,17.960,-277.727,432.776,-0.220,-0.380,0.040
46,45121.900000,-30.406,7.139,256.000,11.874,-276.845,433.963,-0.220,0.620,-0.960
47,45121.923000,-33.349,5.100,252.970,8.523,-278.590,430.088,-1.220,0.620,0.040
48,45121.942000,-31.387,6.120,254.990,13.684,-275.985,430.928,-1.220,0.620,0.040
49,45121.965000,-30.406,7.139,257.010,13.684,-275.985,430.928,-0.220,1.620,-0.960
50,45121.983000,-33.349,5.100,251.961,15.466,-274.252,428.890,-0.220,0.620,0.040
51,45122.0,-31.387,6.120,256.000,10.197,-276.847,432.028,-2.220,0.620,-0.960
52,45122.25000,-32.368,5.100,252.970,11.952,-275.112,430.985,-1.220,-0.380,-0.960
53,45122.40000,-31.387,6.120,254.990,15.471,-276.863,428.882,0.780,1.620,-1.960
54,45122.55000,-31.387,6.120,256.000,12.034,-275.120,428.001,-1.220,-0.380,0.040
55,45122.80000,-34.330,5.100,251.961,14.498,-277.722,432.885,-2.220,-0.380,0.040
56,45122.105000,-29.425,7.139,258.020,11.897,-274.236,432.976,-0.220,0.620,-0.960
57,45122.122000,-32.368,4.080,253.980,17.176,-277.734,429.820,-1.220,1.620,1.040
58,45122.142000,-31.387,5.100,253.980,11.141,-275.116,429.023,-0.220,0.620,-1.960
59,45122.163000,-31.387,6.120,253.980,12.902,-276.862,427.969,0.780,-0.380,-0.960
60,45122.187000,-33.349,5.100,252.970,12.766,-276.849,432.941,-0.220,-0.380,0.040
61,45122.207000,-29.425,5.100,256.000,11.138,-273.375,429.028,-0.220,2.620,-0.960
62,45122.231000,-32.368,4.080,253.980,18.822,-275.988,432.754,-1.220,0.620,-0.960
63,45122.249000,-31.387,7.139,256.000,15.471,-276.863,428.882,-3.220,-0.380,0.040
64,45122.271000,-31.387,5.100,253.980,11.030,-273.364,433.006,0.780,1.620,0.040
65,45122.289000,-33.349,6.120,253.980,16.309,-276.862,429.849,-0.220,-0.380,-1.960
66,45122.306000,-31.387,8.159,258.020,12.818,-275.113,430.958,-1.220,0.620,0.040
67,45122.329000,-33.349,4.080,252.970,13.629,-275.109,432.919,3.780,1.620,-1.960
68,45122.351000,-28.444,5.100,256.000,11.058,-274.237,432.009,4.780,3.620,-2.960
69,45122.379000,-31.387,3.060,254.990,13.709,-274.247,429.939,2.780,1.620,-2.960
70,45122.386000,-32.368,6.120,253.980,13.682,-274.244,430.933,-7.220,-2.380,-0.960
71,45122.406000,-31.387,6.120,256.000,11.954,-275.982,430.982,-8.220,-2.380,3.040
72,45122.426000,-33.349,5.100,252.970,14.545,-273.375,430.909,5.780,-1.380,8.040
73,45122.456000,-30.406,5.100,258.020,11.951,-274.241,430.987,-5.220,0.620,7.040
74,45122.486000,-34.330,6.120,252.970,15.389,-276.855,431.866,-2.220,1.620,7.040
75,45122.501000,-30.406,3.060,251.961,14.573,-273.378,429.914,7.780,-2.380,6.040
76,45122.521000,-30.406,3.060,254.990,14.497,-276.851,432.887,5.780,5.620,9.040
77,45122.531000,-32.368,6.120,254.990,10.219,-273.368,431.044,-13.220,-0.380,11.040
78,45122.549000,-34.330,13.259,254.990,11.899,-275.977,432.971,-13.220,-5.380,8.040
79,45122.576000,-30.406,2.040,252.970,8.495,-277.717,431.085,-1.220,-7.380,8.040
80,45122.595000,-32.368,5.100,254.990,14.523,-275.984,431.895,14.780,11.620,4.040
81,45122.611000,-31.387,6.120,256.000,11.035,-276.846,432.996,-16.220,-5.380,8.040
82,45122.636000,-33.349,3.060,251.961,9.323,-271.624,432.071,-9.220,-2.380,11.040
83,45122.656000,-26.483,8.159,258.020,13.684,-275.985,430.928,-2.220,9.620,86.040
84,45122.671000,-34.330,18.359,253.980,9.326,-273.364,432.066,-32.220,2.620,201.040
85,45122.696000,-32.368,27.538,253.980,9.410,-275.113,429.077,-58.220,-8.380,258.040
86,45122.711000,-33.349,40.797,253.980,7.681,-275.980,429.129,-53.220,6.620,353.040
87,45122.731000,-33.349,33.657,251.961,8.496,-278.587,431.083,-39.220,3.620,451.040
88,45122.756000,-30.406,28.558,258.020,0.678,-276.832,432.327,-59.220,9.620,533.040
89,45122.771000,-33.349,16.319,252.970,-0.133,-276.835,430.365,-74.220,4.620,619.040
90,45122.796000,-28.444,8.159,256.000,-8.867,-277.684,433.617,-79.220,9.620,703.040
91,45122.814000,-30.406,10.199,257.010,-8.785,-277.692,430.634,-77.220,14.620,746.040
92,45122.821000,-35.310,15.299,252.970,-13.139,-277.682,431.764,-101.220,8.620,825.040
93,45122.841000,-29.425,5.100,254.990,-17.440,-276.807,430.907,-110.220,-2.380,880.040
94,45122.869000,-33.349,0.000,254.990,-24.335,-277.669,430.127,-94.220,19.620,888.040
95,45122.904000,-33.349,-6.120,258.020,-32.210,-274.167,433.365,-93.220,11.620,875.040
96,45122.924000,-36.291,4.080,254.990,-29.528,-276.790,430.293,-124.220,6.620,857.040
97,45122.939000,-35.310,-1.020,251.961,-36.484,-273.295,431.515,-113.220,2.620,862.040
98,45122.954000,-35.310,-3.060,257.010,-40.891,-274.151,434.631,-86.220,19.620,859.040
99,45122.971000,-39.234,5.100,256.000,-46.006,-271.539,431.818,-102.220,17.620,854.040
100,45122.994000,-32.368,-3.060,253.980,-47.762,-272.404,432.864,-121.220,-9.380,871.040
101,45123.16000,-34.330,3.060,256.000,-57.311,-270.645,434.162,-111.220,20.620,892.040
102,45123.39000,-37.272,10.199,253.980,-65.913,-268.896,432.450,-97.220,29.620,926.040
103,45123.56000,-30.406,-2.040,254.990,-66.803,-270.632,433.466,-128.220,-9.380,929.040
104,45123.79000,-37.272,5.100,252.970,-77.219,-268.002,434.794,-99.220,22.620,917.040
105,45123.96000,-31.387,5.100,256.000,-72.862,-269.752,433.659,-90.220,5.620,879.040
106,45123.114000,-33.349,-1.020,252.970,-82.418,-263.642,434.970,-99.220,11.620,883.040
107,45123.136000,-33.349,5.100,254.990,-81.526,-263.646,433.948,-124.220,17.620,899.040
108,45123.144000,-31.387,-11.219,254.990,-94.509,-261.884,434.360,-102.220,15.620,917.040
109,45123.164000,-22.559,-30.598,252.970,-91.155,-262.750,438.227,-106.220,6.620,862.040
110,45123.191000,-19.617,-24.478,261.049,-102.357,-258.385,436.604,-60.220,28.620,741.040
111,45123.216000,-38.253,5.100,256.000,-102.334,-255.777,435.617,-100.220,13.620,670.040
112,45123.237000,-48.061,23.458,248.931,-109.260,-254.025,435.839,-112.220,-0.380,706.040
113,45123.259000,-43.157,26.518,251.961,-109.260,-254.025,435.839,-130.220,14.620,715.040
114,45123.281000,-36.291,26.518,252.970,-116.163,-249.665,435.075,-57.220,35.620,733.040
115,45123.316000,-31.387,22.438,259.030,-117.950,-247.916,437.123,-104.220,-1.380,781.040
116,45123.336000,-22.559,2.040,251.961,-125.689,-245.298,435.386,-127.220,-20.380,812.040
117,45123.357000,-22.559,2.040,251.961,-124.853,-243.556,436.359,-58.220,2.620,870.040
118,45123.364000,-12.751,-20.398,258.020,-133.485,-240.063,435.646,-95.220,43.620,850.040
119,45123.381000,-25.502,-10.199,263.069,-137.028,-240.049,438.738,-170.220,-2.380,839.040
120,45123.404000,-43.157,1.020,253.980,-138.708,-238.311,436.808,-162.220,-6.380,814.040
121,45123.419000,-46.100,14.279,249.941,-142.200,-235.692,437.919,-91.220,1.620,851.040
122,45123.444000,-37.272,7.139,251.961,-146.558,-233.071,439.057,-43.220,25.620,900.040
123,45123.459000,-37.272,14.279,260.039,-152.566,-230.456,437.266,-116.220,-6.380,836.040
124,45123.474000,-38.253,7.139,252.970,-149.166,-226.105,439.159,-111.220,8.620,738.040
125,45123.489000,-40.215,-2.040,250.951,-157.797,-223.482,438.444,7.780,37.620,630.040
126,45123.519000,-24.521,-14.279,260.039,-163.911,-221.726,440.628,-42.220,14.620,538.040
127,45123.541000,-27.464,-6.120,259.030,-160.430,-217.383,439.538,-70.220,-4.380,451.040
128,45123.561000,-24.521,-4.080,254.990,-164.728,-218.249,438.676,-88.220,13.620,483.040
129,45123.584000,-26.483,2.040,253.980,-167.278,-213.028,436.784,-52.220,16.620,554.040
130,45123.604000,-29.425,3.060,257.010,-169.090,-213.017,439.822,-73.220,7.620,590.040
131,45123.639000,-24.521,-1.020,258.020,-176.072,-210.390,442.036,-89.220,-7.380,627.040
132,45123.639000,-26.483,-7.139,252.970,-169.124,-208.663,440.829,-90.220,14.620,669.040
133,45123.655000,-32.368,11.219,257.010,-176.941,-207.778,442.071,-83.220,3.620,708.040
134,45123.675000,-34.330,1.020,253.980,-180.304,-201.690,438.219,-110.220,8.620,747.040
135,45123.700000,-33.349,8.159,253.980,-184.716,-199.064,441.346,-104.220,6.620,845.040
136,45123.720000,-19.617,5.100,258.020,-188.243,-192.091,443.464,-142.220,-4.380,971.040
137,45123.745000,-19.617,2.040,254.990,-187.304,-187.748,440.467,-113.220,10.620,991.040
138,45123.765000,-17.655,2.040,257.010,-193.341,-183.389,439.675,-99.220,3.620,939.040
139,45123.780000,-17.655,-6.120,257.010,-194.321,-179.896,443.691,-82.220,31.620,978.040
140,45123.802000,-23.540,-3.060,259.030,-200.305,-174.672,440.913,-139.220,3.620,1066.040
141,45123.827000,-21.579,0.000,257.010,-205.591,-166.823,444.082,-154.220,6.620,1161.040
142,45123.847000,-23.540,2.040,251.961,-205.545,-161.606,442.109,-133.220,17.620,1225.040
143,45123.865000,-21.579,5.100,259.030,-211.589,-153.766,441.328,-137.220,26.620,1245.040
144,45123.885000,-27.464,4.080,253.980,-212.485,-151.151,442.357,-167.220,2.620,1322.040
145,45123.910000,-23.540,6.120,256.000,-216.014,-143.307,444.478,-160.220,18.620,1356.040
146,45123.925000,-21.579,2.040,256.000,-219.482,-138.950,444.599,-159.220,19.620,1385.040
147,45123.948000,-20.598,1.020,256.000,-222.933,-128.503,443.745,-157.220,13.620,1367.040
148,45123.968000,-20.598,5.100,259.030,-223.830,-125.888,444.774,-164.220,8.620,1315.040
149,45123.985000,-23.540,5.100,252.970,-223.822,-113.706,443.816,-152.220,17.620,1307.040
150,45124.10000,-24.521,9.179,256.000,-229.911,-111.083,445.008,-138.220,27.620,1301.040
151,45124.32000,-29.425,12.239,259.030,-227.415,-99.765,447.944,-160.220,15.620,1278.040
152,45124.50000,-31.387,11.219,251.961,-234.263,-95.410,445.190,-154.220,11.620,1240.040
153,45124.70000,-31.387,11.219,254.990,-229.141,-85.839,447.045,-125.220,27.620,1188.040
154,45124.92000,-34.330,9.179,253.980,-236.042,-82.349,446.278,-116.220,16.620,1135.040
155,45124.123000,-32.368,10.199,256.000,-231.782,-74.518,448.155,-147.220,9.620,1110.040
156,45124.132000,-39.234,14.279,252.970,-236.113,-71.900,448.298,-131.220,8.620,1040.040
157,45124.146000,-39.234,10.199,251.961,-232.693,-63.200,449.210,-99.220,15.620,1001.040
158,45124.176000,-33.349,10.199,254.990,-233.591,-59.714,450.242,-96.220,16.620,1016.040
159,45124.187000,-27.464,4.080,256.000,-236.987,-50.143,447.396,-136.220,8.620,1062.040
160,45124.212000,-24.521,7.139,257.010,-234.393,-48.406,447.319,-136.220,11.620,1085.040
161,45124.232000,-34.330,8.159,254.990,-237.035,-37.085,448.429,-135.220,16.620,1099.040
162,45124.252000,-37.272,10.199,250.951,-232.745,-30.997,449.306,-110.220,8.620,1101.040
163,45124.272000,-28.444,6.120,257.010,-234.560,-29.246,452.349,-119.220,10.620,1207.040
164,45124.295000,-16.674,-7.139,257.010,-232.003,-21.415,453.285,-175.220,20.620,1275.040
165,45124.315000,-25.502,18.359,260.039,-231.122,-14.456,452.285,-158.220,0.620,1302.040
166,45124.332000,-25.502,4.080,248.931,-232.923,-4.874,454.356,-174.220,-9.380,1284.040
167,45124.355000,-31.387,11.219,254.990,-232.017,3.822,452.366,-106.220,44.620,1282.040
168,45124.378000,-30.406,14.279,258.020,-226.880,4.689,454.195,-146.220,5.620,1263.040
169,45124.392000,-30.406,4.080,251.961,-229.519,14.270,455.300,-164.220,3.620,1244.040
170,45124.410000,-27.464,7.139,254.990,-221.825,22.098,458.062,-124.220,23.620,1274.040
171,45124.427000,-29.425,5.100,254.990,-214.042,25.567,457.828,-152.220,16.620,1278.040
172,45124.443000,-31.387,7.139,253.980,-222.683,34.281,457.131,-161.220,8.620,1263.040
173,45124.462000,-29.425,8.159,256.000,-212.362,40.362,458.813,-147.220,10.620,1233.040
174,45124.508000,-28.444,5.100,251.961,-215.862,47.333,459.937,-110.220,17.620,1174.040
175,45124.530000,-32.368,12.239,259.030,-207.247,54.284,460.681,-128.220,13.620,1176.040
176,45124.545000,-26.483,4.080,254.990,-208.906,60.372,457.770,-171.220,3.620,1150.040
177,45124.554000,-29.425,12.239,254.990,-200.345,67.328,460.503,-126.220,24.620,1154.040
178,45124.571000,-26.483,4.080,256.000,-203.001,70.819,462.583,-127.220,3.620,1142.040
179,45124.594000,-32.368,8.159,253.980,-193.597,75.165,466.276,-142.220,18.620,1105.040
180,45124.609000,-31.387,10.199,256.000,-196.990,82.996,463.424,-129.220,6.620,1086.040
181,45124.634000,-30.406,8.159,252.970,-187.475,85.592,463.134,-117.220,21.620,1063.040
182,45124.656000,-30.406,10.199,254.990,-188.409,94.302,465.176,-121.220,10.620,1047.040
183,45124.674000,-27.464,6.120,257.010,-181.542,95.166,466.950,-135.220,5.620,1035.040
184,45124.691000,-33.349,10.199,252.970,-179.821,101.255,466.914,-124.220,15.620,1012.040
185,45124.716000,-27.464,5.100,257.010,-178.090,101.253,466.860,-116.220,12.620,970.040
186,45124.739000,-31.387,7.139,253.980,-172.995,110.826,469.709,-106.220,18.620,928.040
187,45124.746000,-30.406,6.120,254.990,-168.664,108.208,469.566,-107.220,3.620,896.040
188,45124.766000,-31.387,7.139,254.990,-166.079,115.166,469.505,-91.220,13.620,871.040
189,45124.781000,-33.349,7.139,252.970,-163.485,116.903,469.429,-103.220,14.620,855.040
190,45124.809000,-28.444,6.120,257.010,-153.972,120.368,469.141,-100.220,6.620,854.040
191,45124.824000,-33.349,7.139,252.970,-156.598,122.116,470.222,-102.220,11.620,852.040
192,45124.849000,-29.425,9.179,254.990,-146.219,125.580,469.907,-99.220,8.620,830.040
193,45124.874000,-27.464,7.139,256.000,-146.276,127.326,471.901,-90.220,12.620,814.040
194,45124.891000,-29.425,6.120,253.980,-139.306,131.662,469.708,-95.220,7.620,805.040
195,45124.921000,-28.444,8.159,259.030,-134.251,132.536,474.520,-103.220,8.620,803.040
196,45124.929000,-29.425,5.100,249.941,-132.503,138.623,473.490,-96.220,5.620,813.040
197,45124.961000,-23.540,6.120,256.000,-132.557,138.629,475.479,-93.220,12.620,834.040
198,45124.979000,-28.444,9.179,254.990,-122.965,143.827,472.212,-110.220,8.620,837.040
199,45124.996000,-26.483,4.080,253.980,-116.095,142.951,473.982,-112.220,8.620,853.040
200,45125.19000,-26.483,8.159,258.020,-114.481,148.181,477.921,-93.220,14.620,882.040
201,45125.41000,-29.425,6.120,253.980,-110.127,148.171,476.791,-107.220,11.620,894.040
202,45125.59000,-25.502,9.179,254.990,-107.538,152.518,476.722,-114.220,7.620,915.040
203,45125.81000,-25.502,6.120,254.990,-106.671,151.647,476.693,-96.220,9.620,944.040
204,45125.109000,-24.521,4.080,254.990,-101.540,155.995,478.532,-106.220,18.620,983.040
205,45125.116000,-20.598,4.080,259.030,-91.970,157.715,476.250,-122.220,10.620,1022.040
206,45125.136000,-21.579,-1.020,253.980,-90.325,160.331,479.187,-128.220,8.620,1045.040
207,45125.159000,-22.559,4.080,259.030,-80.834,161.189,479.885,-137.220,14.620,1079.040
208,45125.183000,-27.464,5.100,252.970,-74.755,164.658,478.711,-133.220,13.620,1103.040
209,45125.201000,-29.425,6.120,256.000,-74.782,164.660,479.706,-137.220,17.620,1123.040
210,45125.221000,-27.464,9.179,259.030,-66.190,169.003,481.437,-135.220,11.620,1167.040
211,45125.241000,-30.406,10.199,254.990,-60.999,169.865,481.276,-141.220,15.620,1210.040
212,45125.264000,-23.540,10.199,259.030,-46.394,168.111,484.788,-147.220,13.620,1255.040
213,45125.286000,-27.464,5.100,252.970,-47.239,172.461,483.834,-158.220,16.620,1315.040
214,45125.301000,-30.406,11.219,254.990,-35.175,170.706,485.438,-163.220,17.620,1366.040
215,45125.336000,-26.483,10.199,257.010,-27.281,172.424,481.221,-168.220,13.620,1418.040
216,45125.356000,-32.368,13.259,254.990,-10.058,174.144,483.667,-171.220,21.620,1452.040
217,45125.360000,-30.406,15.299,256.000,-3.248,176.754,487.435,-167.220,8.620,1474.040
218,45125.380000,-34.330,13.259,253.980,-1.534,170.662,488.358,-182.220,10.620,1461.040
219,45125.397000,-35.310,15.299,251.961,8.928,172.378,485.054,-151.220,17.620,1465.040
220,45125.429000,-35.310,18.359,254.990,16.608,172.376,488.788,-182.220,20.620,1466.040
221,45125.446000,-32.368,13.259,252.970,22.696,170.623,487.598,-164.220,19.620,1498.040
222,45125.464000,-29.425,8.159,257.010,32.182,174.091,488.304,-172.220,24.620,1520.040
223,45125.479000,-34.330,9.179,251.961,42.544,171.466,488.966,-178.220,23.620,1538.040
224,45125.499000,-29.425,6.120,256.000,47.794,168.841,486.806,-192.220,6.620,1542.040
225,45125.523000,-31.387,14.279,257.010,59.946,162.727,485.414,-182.220,22.620,1542.040
226,45125.540000,-32.368,6.120,252.970,65.110,163.591,486.248,-172.220,13.620,1573.040
227,45125.565000,-32.368,12.239,257.010,79.697,156.618,490.738,-191.220,23.620,1607.040
228,45125.587000,-32.368,8.159,253.980,82.376,155.735,487.671,-207.220,11.620,1618.040
229,45125.610000,-29.425,14.279,256.000,97.041,150.495,489.183,-194.220,14.620,1609.040
230,45125.630000,-32.368,8.159,254.990,96.178,148.756,489.205,-165.220,18.620,1605.040
231,45125.645000,-32.368,13.259,253.980,104.843,141.779,488.913,-187.220,20.620,1575.040
232,45125.667000,-25.502,13.259,257.010,112.720,137.407,485.673,-184.220,9.620,1567.040
233,45125.690000,-28.444,9.179,252.970,123.874,129.566,489.275,-169.220,22.620,1588.040
234,45125.702000,-29.425,12.239,259.030,129.039,129.560,490.106,-184.220,21.620,1598.040
235,45125.722000,-30.406,8.159,257.010,138.600,119.969,488.785,-190.220,13.620,1595.040
236,45125.747000,-31.387,7.139,254.990,145.502,116.479,489.552,-185.220,13.620,1589.040
237,45125.765000,-32.368,13.259,257.010,154.251,107.753,486.271,-180.220,18.620,1580.040
238,45125.800000,-33.349,5.100,250.951,155.041,104.278,489.217,-174.220,14.620,1570.040
239,45125.815000,-29.425,5.100,257.010,168.122,92.065,485.791,-174.220,17.620,1546.040
240,45125.835000,-31.387,10.199,256.000,167.178,90.334,488.796,-185.220,22.620,1537.040
241,45125.850000,-27.464,3.060,252.970,178.553,79.861,484.434,-169.220,17.620,1548.040
242,45125.867000,-27.464,8.159,256.000,176.831,74.642,484.473,-190.220,20.620,1553.040
243,45125.890000,-28.444,5.100,252.970,188.986,66.787,483.075,-180.220,16.620,1563.040
244,45125.912000,-23.540,5.100,257.010,188.157,60.693,482.090,-183.220,13.620,1566.040
245,45125.932000,-24.521,3.060,257.010,189.878,50.249,482.999,-172.220,18.620,1556.040
246,45125.955000,-27.464,3.060,257.010,198.511,45.886,483.709,-180.220,15.620,1526.040
247,45125.967000,-38.253,13.259,254.990,200.313,35.434,481.635,-197.220,19.620,1496.040
248,45125.993000,-40.215,9.179,250.951,202.185,31.937,476.598,-170.220,7.620,1398.040
249,45126.12000,-37.272,10.199,256.000,202.145,23.239,478.561,-137.220,31.620,1319.040
250,45126.29000,-41.195,6.120,254.990,206.424,18.885,480.401,-152.220,22.620,1266.040
251,45126.46000,-41.195,6.120,254.990,207.418,6.689,476.360,-145.220,11.620,1243.040
252,45126.61000,-41.195,11.219,250.951,213.345,3.210,481.132,-161.220,1.620,1208.040
253,45126.76000,-30.406,6.120,253.980,209.978,-4.625,478.233,-114.220,30.620,1157.040
254,45126.104000,-35.310,7.139,252.970,218.647,-14.212,477.934,-123.220,17.620,1109.040
255,45126.123000,-31.387,6.120,259.030,210.103,-15.079,474.224,-158.220,5.620,1054.040
256,45126.144000,-37.272,10.199,253.980,218.821,-21.191,471.946,-100.220,13.620,1040.040
257,45126.179000,-35.310,6.120,251.961,214.396,-27.266,476.041,-99.220,19.620,1005.040
258,45126.199000,-30.406,5.100,258.020,221.357,-34.242,474.809,-102.220,18.620,995.040
259,45126.224000,-28.444,4.080,253.980,218.739,-37.717,475.874,-126.220,6.620,990.040
260,45126.239000,-24.521,4.080,257.010,222.243,-47.298,474.743,-130.220,20.620,1004.040
261,45126.254000,-34.330,9.179,254.990,214.513,-49.902,472.990,-115.220,7.620,1002.040
262,45126.279000,-31.387,7.139,253.980,215.414,-55.128,471.953,-114.220,9.620,993.040
263,45126.289000,-29.425,9.179,256.000,218.910,-59.488,470.837,-101.220,14.620,1054.040
264,45126.314000,-25.502,4.080,252.970,215.487,-66.447,469.930,-119.220,15.620,1095.040
265,45126.336000,-24.521,7.139,259.030,217.254,-72.545,468.864,-119.220,8.620,1134.040
266,45126.356000,-28.444,7.139,258.020,212.042,-76.886,470.008,-159.220,21.620,1130.040
267,45126.379000,-32.368,7.139,253.980,213.757,-83.849,470.927,-126.220,-7.380,1075.040
268,45126.384000,-29.425,1.020,258.020,218.069,-91.686,471.763,-67.220,35.620,974.040
269,45126.399000,-37.272,6.120,254.990,213.882,-94.303,466.918,-152.220,4.620,922.040
270,45126.437000,-37.272,22.438,257.010,207.783,-102.121,469.074,-133.220,15.620,949.040
271,45126.452000,-35.310,21.418,248.931,213.953,-104.752,464.898,-116.220,0.620,1038.040
272,45126.482000,-20.598,-2.040,253.980,212.185,-115.188,466.910,-82.220,38.620,1080.040
273,45126.490000,-23.540,-1.020,261.049,208.835,-116.934,463.036,-131.220,6.620,1059.040
274,45126.512000,-32.368,5.100,256.000,201.949,-123.017,462.240,-168.220,1.620,1036.040
275,45126.530000,-30.406,12.239,252.970,207.154,-130.859,462.054,-117.220,0.620,1095.040
276,45126.549000,-26.483,-2.040,256.000,199.344,-134.325,463.282,-71.220,39.620,1114.040
277,45126.572000,-28.444,2.040,261.049,202.867,-138.687,461.172,-143.220,16.620,1103.040
278,45126.595000,-39.234,7.139,256.000,196.877,-147.386,459.346,-168.220,-9.380,1040.040
279,45126.620000,-38.253,9.179,247.921,190.747,-152.590,462.504,-88.220,26.620,1027.040
280,45126.637000,-34.330,10.199,258.020,193.461,-158.697,458.427,-98.220,25.620,1091.040
281,45126.662000,-33.349,2.040,256.000,193.493,-161.311,457.424,-132.220,13.620,1150.040
282,45126.680000,-33.349,7.139,259.030,185.691,-169.999,458.637,-182.220,4.620,1154.040
283,45126.692000,-43.157,15.299,249.941,179.665,-172.603,457.825,-128.220,19.620,1078.040
284,45126.706000,-50.023,23.458,249.941,175.428,-177.826,454.961,-80.220,13.620,986.040
285,45126.726000,-35.310,7.139,256.000,174.514,-181.300,456.967,-86.220,27.620,927.040
286,45126.751000,-33.349,-11.219,252.970,172.008,-186.526,454.049,-120.220,8.620,817.040
287,45126.776000,-36.291,9.179,261.049,167.707,-185.651,453.193,-133.220,24.620,806.040
288,45126.791000,-35.310,7.139,249.941,169.417,-190.003,454.120,-107.220,-14.380,827.040
289,45126.813000,-35.310,7.139,253.980,166.024,-198.706,452.214,-65.220,29.620,772.040
290,45126.849000,-27.464,7.139,258.020,162.533,-196.957,453.322,-78.220,-7.380,861.040
291,45126.869000,-37.272,14.279,254.990,161.737,-206.535,451.332,-124.220,10.620,931.040
292,45126.889000,-30.406,8.159,252.970,154.814,-206.523,451.549,-104.220,-1.380,881.040
293,45126.911000,-28.444,-13.259,254.990,150.494,-210.868,451.671,-59.220,31.620,788.040
294,45126.926000,-44.138,6.120,259.030,147.975,-208.261,448.777,-78.220,8.620,589.040
295,45126.939000,-40.215,12.239,252.970,147.175,-215.227,446.795,-132.220,-12.380,517.040
296,45126.964000,-33.349,12.239,249.941,139.333,-215.209,449.028,-52.220,22.620,732.040
297,45126.981000,-31.387,9.179,259.030,139.374,-223.915,448.007,-90.220,32.620,904.040
298,45127.4000,-25.502,-2.040,256.000,135.067,-219.559,447.161,-150.220,-9.380,878.040
299,45127.21000,-24.521,-10.199,254.990,135.947,-228.264,447.108,-127.220,8.620,778.040
300,45127.29000,-37.272,5.100,256.000,126.482,-228.254,445.418,-54.220,7.620,620.040
301,45127.49000,-36.291,3.060,250.951,132.437,-231.734,449.195,-86.220,12.620,479.040
302,45127.74000,-34.330,11.219,256.000,122.156,-229.117,445.551,-44.220,-3.380,458.040
303,45127.99000,-31.387,4.080,252.970,126.519,-234.348,444.405,-67.220,18.620,539.040
304,45127.119000,-36.291,13.259,256.000,121.248,-236.073,447.546,-49.220,19.620,598.040
305,45127.144000,-26.483,0.000,256.000,121.251,-237.814,447.541,-96.220,-2.380,595.040
306,45127.166000,-31.387,1.020,256.000,121.336,-240.432,444.550,-77.220,14.620,571.040
307,45127.184000,-33.349,7.139,257.010,114.362,-242.157,446.750,-84.220,-3.380,550.040
308,45127.201000,-38.253,10.199,251.961,114.471,-242.167,442.773,-69.220,7.620,557.040
309,45127.224000,-29.425,10.199,256.000,107.495,-243.021,444.976,-51.220,4.620,573.040
310,45127.246000,-40.215,17.339,254.990,106.635,-246.501,444.993,-73.220,24.620,532.040
311,45127.261000,-29.425,-1.020,251.961,103.229,-247.371,443.110,-77.220,-6.380,492.040
312,45127.286000,-24.521,-13.259,256.000,105.798,-247.372,444.023,-26.220,2.620,537.040
313,45127.306000,-31.387,-4.080,258.020,94.605,-249.100,442.381,-107.220,14.620,636.040
314,45127.331000,-20.598,-6.120,258.020,98.151,-250.854,439.284,-123.220,-10.380,717.040
315,45127.347000,-28.444,4.080,256.000,91.969,-257.794,444.426,-68.220,17.620,770.040
316,45127.366000,-39.234,17.339,252.970,96.288,-252.579,444.305,-77.220,8.620,757.040
317,45127.386000,-39.234,21.418,252.970,89.402,-258.663,443.510,-73.220,2.620,677.040
318,45127.406000,-36.291,7.139,253.980,85.126,-256.920,441.662,-58.220,19.620,613.040
319,45127.429000,-22.559,-6.120,260.039,78.293,-262.139,438.880,-64.220,12.620,682.040
320,45127.446000,-20.598,-9.179,259.030,72.203,-258.645,440.074,-118.220,0.620,768.040
321,45127.466000,-25.502,2.040,254.990,70.426,-263.859,442.102,-114.220,1.620,804.040
322,45127.484000,-31.387,9.179,254.990,65.228,-260.369,442.275,-99.220,9.620,801.040
323,45127.509000,-33.349,7.139,252.970,67.046,-263.861,439.227,-77.220,16.620,831.040
324,45127.529000,-27.464,2.040,258.020,54.067,-264.710,439.631,-100.220,14.620,913.040
325,45127.554000,-28.444,4.080,253.980,49.772,-267.317,438.765,-128.220,4.620,1005.040
326,45127.576000,-25.502,3.060,253.980,42.934,-269.925,435.991,-128.220,8.620,1033.040
327,45127.583000,-32.368,9.179,253.980,41.965,-272.524,439.988,-106.220,15.620,1024.040
328,45127.609000,-36.291,11.219,252.970,29.117,-270.775,435.428,-119.220,9.620,1008.040
329,45127.631000,-32.368,13.259,257.010,29.094,-273.384,436.414,-115.220,7.620,992.040
330,45127.651000,-35.310,8.159,252.970,17.848,-275.976,436.759,-105.220,14.620,1013.040
331,45127.669000,-30.406,7.139,256.000,17.791,-274.230,438.753,-114.220,14.620,1045.040
332,45127.684000,-26.483,3.060,257.010,8.359,-277.704,436.058,-118.220,2.620,1089.040
333,45127.699000,-16.674,-9.179,254.990,3.217,-275.090,434.239,-127.220,10.620,1146.040
334,45127.721000,-19.617,1.020,262.059,-6.355,-275.940,436.524,-112.220,25.620,1153.040
335,45127.746000,-27.464,5.100,254.990,-12.409,-277.671,436.709,-162.220,4.620,1187.040
336,45127.766000,-34.330,16.319,253.980,-20.982,-277.664,433.997,-160.220,11.620,1206.040
337,45127.791000,-38.253,16.319,251.961,-19.144,-276.807,429.967,-128.220,14.620,1205.040
338,45127.806000,-39.234,16.319,252.970,-33.991,-276.770,435.401,-112.220,18.620,1179.040
339,45127.826000,-30.406,10.199,256.000,-31.370,-275.036,434.330,-128.220,14.620,1157.040
340,45127.849000,-27.464,2.040,253.980,-47.764,-271.534,432.867,-127.220,18.620,1142.040
341,45127.867000,-27.464,9.179,258.020,-45.193,-272.406,433.777,-125.220,16.620,1154.040
342,45127.892000,-30.406,8.159,253.980,-54.631,-272.398,431.092,-145.220,9.620,1159.040
343,45127.910000,-30.406,8.159,252.970,-62.449,-270.642,432.336,-126.220,13.620,1118.040
344,45127.935000,-19.617,-5.100,259.030,-66.775,-271.505,432.469,-101.220,18.620,1081.040
345,45127.952000,-28.444,4.080,257.010,-77.085,-267.145,429.824,-119.220,27.620,1058.040
346,45127.984000,-27.464,9.179,257.010,-78.006,-266.268,431.843,-144.220,0.620,1029.040
347,45127.986000,-30.406,4.080,251.961,-84.067,-263.647,432.041,-115.220,7.620,994.040
348,45128.6000,-30.406,6.120,256.000,-88.369,-262.772,431.184,-88.220,28.620,986.040
349,45128.21000,-29.425,7.139,259.030,-95.296,-260.150,431.409,-137.220,5.620,977.040
350,45128.46000,-31.387,7.139,251.961,-100.442,-254.925,429.598,-128.220,2.620,966.040
351,45128.69000,-27.464,5.100,254.990,-104.847,-256.651,432.712,-103.220,10.620,966.040
352,45128.89000,-35.310,10.199,256.000,-111.725,-251.423,430.956,-97.220,26.620,949.040
353,45128.114000,-35.310,6.120,253.980,-111.727,-249.682,430.961,-128.220,-2.380,905.040
354,45128.133000,-33.349,10.199,253.980,-123.014,-243.569,432.326,-96.220,13.620,882.040
355,45128.149000,-31.387,6.120,253.980,-121.336,-244.437,434.259,-98.220,15.620,899.040
356,45128.175000,-31.387,13.259,258.020,-127.262,-241.829,429.484,-97.220,13.620,922.040
357,45128.205000,-37.272,15.299,250.951,-131.673,-240.074,432.608,-113.220,6.620,920.040
358,45128.205000,-32.368,11.219,252.970,-137.709,-236.585,431.814,-105.220,3.620,883.040
359,45128.255000,-31.387,7.139,256.000,-135.979,-236.588,431.760,-75.220,17.620,840.040
360,45128.255000,-33.349,5.100,254.990,-149.083,-226.983,436.173,-102.220,11.620,822.040
361,45128.272000,-29.425,5.100,256.000,-144.642,-230.481,432.049,-118.220,5.620,807.040
362,45128.297000,-32.368,2.040,250.951,-148.919,-227.869,430.204,-93.220,10.620,796.040
363,45128.312000,-28.444,4.080,257.010,-156.740,-224.372,431.453,-81.220,12.620,782.040
364,45128.335000,-30.406,4.080,254.990,-162.887,-219.132,434.641,-97.220,10.620,786.040
365,45128.360000,-29.425,4.080,252.970,-161.081,-215.662,431.614,-113.220,8.620,809.040
366,45128.372000,-29.425,7.139,257.010,-161.111,-213.918,432.614,-91.220,12.620,825.040
367,45128.392000,-31.387,4.080,254.990,-168.015,-208.688,431.852,-88.220,11.620,838.040
368,45128.415000,-27.464,3.060,257.010,-172.316,-207.813,430.996,-107.220,12.620,850.040
369,45128.440000,-30.406,8.159,254.990,-172.381,-200.845,433.005,-118.220,10.620,881.040
370,45128.457000,-31.387,5.100,253.980,-177.605,-198.223,434.170,-100.220,7.620,899.040
371,45128.477000,-30.406,7.139,257.010,-184.562,-193.858,435.395,-102.220,12.620,911.040
372,45128.513000,-32.368,6.120,252.970,-185.377,-191.251,433.441,-108.220,12.620,935.040
373,45128.529000,-33.349,14.279,257.010,-188.847,-186.023,433.565,-129.220,12.620,952.040
374,45128.556000,-35.310,11.219,253.980,-187.092,-184.288,432.521,-112.220,6.620,961.040
375,45128.556000,-42.176,18.359,252.970,-193.137,-175.577,431.743,-118.220,18.620,964.040
376,45128.581000,-35.310,10.199,253.980,-193.252,-171.215,435.734,-107.220,6.620,985.040
377,45128.599000,-32.368,4.080,251.961,-202.698,-165.985,433.064,-109.220,14.620,995.040
378,45128.621000,-27.464,2.040,259.030,-201.052,-164.240,435.999,-115.220,13.620,1025.040
379,45128.639000,-30.406,4.080,254.990,-209.661,-158.139,434.299,-134.220,10.620,1045.040
380,45128.661000,-31.387,2.040,252.970,-207.182,-152.911,438.211,-128.220,8.620,1049.040
381,45128.669000,-29.425,4.080,257.010,-215.795,-144.198,436.519,-123.220,14.620,1053.040
382,45128.691000,-31.387,2.040,252.970,-215.852,-142.453,438.514,-112.220,18.620,1049.040
383,45128.716000,-28.444,4.080,258.020,-217.643,-138.963,440.567,-133.220,10.620,1043.040
384,45128.746000,-29.425,4.080,253.980,-222.708,-133.746,435.773,-131.220,10.620,1042.040
385,45128.781000,-31.387,5.100,254.990,-225.369,-126.774,437.864,-115.220,16.620,1030.040
386,45128.781000,-33.349,7.139,254.990,-224.484,-122.426,436.856,-114.220,13.620,1008.040
387,45128.811000,-33.349,7.139,252.970,-227.171,-116.322,439.939,-120.220,10.620,965.040
388,45128.814000,-32.368,8.159,254.990,-227.175,-113.711,439.946,-105.220,13.620,894.040
389,45128.837000,-34.330,7.139,252.970,-226.350,-105.877,440.937,-82.220,12.620,798.040
390,45128.862000,-34.330,7.139,252.970,-231.492,-103.262,439.119,-86.220,6.620,708.040
391,45128.884000,-35.310,11.219,253.980,-225.411,-100.664,437.942,-82.220,5.620,667.040
392,45128.901000,-35.310,9.179,253.980,-233.291,-94.551,441.188,-62.220,9.620,580.040
393,45128.926000,-36.291,5.100,253.980,-228.129,-92.816,442.025,-50.220,7.620,496.040
394,45128.944000,-32.368,6.120,258.020,-234.217,-90.193,443.217,-53.220,3.620,407.040
395,45128.966000,-31.387,4.080,252.970,-229.866,-88.462,442.092,-38.220,2.620,321.040
396,45128.979000,-32.368,8.159,256.000,-231.590,-92.811,442.133,-23.220,4.620,244.040
397,45128.994000,-32.368,7.139,254.990,-229.892,-89.329,443.084,-24.220,6.620,215.040
398,45129.14000,-34.330,7.139,250.951,-232.464,-87.587,442.176,-25.220,-0.380,156.040
399,45129.34000,-30.406,8.159,258.020,-234.119,-84.111,439.257,-9.220,3.620,104.040
400,45129.59000,-33.349,4.080,251.961,-231.600,-86.718,442.151,-6.220,2.620,62.040
401,45129.79000,-32.368,8.159,257.010,-232.442,-84.108,441.192,-3.220,-1.380,25.040
402,45129.106000,-32.368,6.120,254.990,-231.571,-87.591,441.154,-2.220,0.620,0.040
403,45129.124000,-33.349,5.100,252.970,-234.169,-86.717,441.238,3.780,0.620,0.040
404,45129.146000,-29.425,6.120,257.010,-231.603,-84.978,442.157,-2.220,1.620,0.040
405,45129.181000,-32.368,4.080,250.951,-232.381,-88.465,439.190,-4.220,-1.380,-1.960
406,45129.181000,-29.425,6.120,258.020,-231.631,-84.105,443.154,0.780,1.620,-1.960
407,45129.206000,-32.368,5.100,253.980,-234.279,-85.836,445.219,-2.220,0.620,-1.960
408,45129.228000,-31.387,6.120,256.000,-229.789,-85.858,439.116,-2.220,0.620,-1.960
409,45129.249000,-29.425,5.100,254.990,-231.573,-86.721,441.157,0.780,1.620,-0.960
410,45129.265000,-31.387,5.100,252.970,-231.630,-84.975,443.151,1.780,1.620,0.040
411,45129.282000,-29.425,6.120,257.010,-226.351,-88.473,439.995,0.780,0.620,0.040
412,45129.292000,-32.368,4.080,251.961,-231.544,-87.594,440.160,-0.220,1.620,0.040
413,45129.312000,-31.387,5.100,253.980,-234.170,-85.846,441.241,-0.220,0.620,0.040
414,45129.337000,-30.406,6.120,256.000,-232.525,-83.230,444.178,0.780,1.620,-0.960
415,45129.362000,-32.368,5.100,253.980,-234.223,-86.711,443.227,2.780,0.620,-0.960
416,45129.382000,-28.444,6.120,256.000,-231.601,-85.848,442.154,-3.220,-0.380,-0.960
417,45129.407000,-33.349,6.120,252.970,-229.951,-86.713,445.081,-1.220,0.620,0.040
418,45129.425000,-30.406,6.120,256.000,-234.199,-84.973,442.238,3.780,1.620,0.040
419,45129.450000,-31.387,6.120,256.000,-232.465,-86.717,442.179,0.780,0.620,-0.960
420,45129.470000,-33.349,5.100,251.961,-232.467,-85.846,442.181,-0.220,0.620,0.040
421,45129.494000,-29.425,7.139,259.030,-232.438,-86.719,441.184,1.780,0.620,0.040
422,45129.524000,-31.387,4.080,252.970,-230.759,-88.458,443.114,1.780,2.620,0.040
423,45129.544000,-29.425,5.100,253.980,-231.603,-84.978,442.157,0.780,0.620,1.040
424,45129.559000,-32.368,5.100,253.980,-235.093,-84.099,443.262,0.780,1.620,-0.960
425,45129.574000,-32.368,5.100,253.980,-229.000,-89.333,442.062,2.780,1.620,0.040
426,45129.591000,-30.406,6.120,256.000,-235.904,-84.103,441.300,-1.220,0.620,0.040
427,45129.614000,-31.387,5.100,253.980,-233.302,-87.588,441.209,-0.220,1.620,0.040
428,45129.621000,-30.406,6.120,256.000,-230.759,-88.458,443.114,3.780,1.620,1.040
429,45129.641000,-31.387,4.080,252.970,-237.659,-85.838,442.344,1.780,0.620,0.040
430,45129.664000,-32.368,3.060,253.980,-236.819,-86.707,443.309,0.780,1.620,1.040
431,45129.689000,-30.406,7.139,256.000,-235.068,-82.361,442.273,4.780,1.620,1.040
432,45129.709000,-33.349,5.100,253.980,-235.874,-85.846,440.301,3.780,1.620,1.040
433,45129.726000,-30.406,6.120,257.010,-235.067,-83.231,442.270,-0.220,-0.380,1.040
434,45129.746000,-31.387,5.100,254.990,-234.252,-85.839,444.224,0.780,2.620,0.040
435,45129.776000,-31.387,5.100,250.951,-228.086,-85.859,440.057,1.780,2.620,0.040
436,45129.789000,-31.387,7.139,256.000,-233.356,-87.583,443.198,-0.220,1.620,0.040
437,45129.809000,-32.368,4.080,253.980,-236.739,-85.845,440.328,-0.220,1.620,-0.960
438,45129.834000,-30.406,6.120,257.010,-231.600,-86.718,442.151,0.780,0.620,1.040
439,45129.859000,-32.368,5.100,253.980,-235.897,-88.454,441.287,0.780,1.620,1.040
440,45129.879000,-31.387,5.100,254.990,-229.843,-85.853,441.105,-0.220,0.620,-0.960
441,45129.894000,-30.406,6.120,256.000,-233.281,-84.110,440.225,-0.220,1.620,0.040
442,45129.919000,-32.368,4.080,252.970,-231.570,-88.461,441.152,-0.220,2.620,1.040
443,45129.934000,-29.425,7.139,256.000,-233.253,-84.112,439.230,0.780,2.620,1.040
444,45129.956000,-32.368,4.080,254.990,-230.712,-84.111,441.138,-0.220,0.620,-0.960
445,45129.971000,-31.387,6.120,254.990,-233.252,-84.983,439.228,-1.220,-0.380,0.040
446,45129.994000,-32.368,6.120,256.000,-235.038,-84.104,441.273,0.780,0.620,-0.960
447,45130.16000,-32.368,5.100,252.970,-229.921,-88.457,444.081,-1.220,0.620,0.040
448,45130.39000,-30.406,7.139,256.000,-236.742,-84.104,440.333,-1.220,0.620,-0.960
449,45130.56000,-33.349,5.100,253.980,-234.981,-85.850,439.279,-1.220,1.620,-0.960
450,45130.74000,-30.406,5.100,257.010,-235.011,-84.107,440.279,-0.220,0.620,-0.960
451,45130.91000,-31.387,5.100,257.010,-235.924,-88.452,442.282,-2.220,0.620,0.040
452,45130.109000,-32.368,4.080,253.980,-235.931,-84.100,442.295,-0.220,0.620,-0.960
453,45130.134000,-31.387,6.120,257.010,-232.441,-84.979,441.189,0.780,1.620,0.040
454,45130.149000,-32.368,5.100,251.961,-236.771,-83.231,441.330,-1.220,0.620,1.040
455,45130.168000,-28.444,5.100,256.000,-233.303,-86.718,441.211,-0.220,-0.380,0.040
456,45130.194000,-31.387,5.100,254.990,-236.768,-84.972,441.325,0.780,0.620,0.040
457,45130.216000,-31.387,4.080,254.990,-230.682,-85.854,440.138,-1.220,0.620,-0.960
458,45130.241000,-30.406,7.139,257.010,-234.223,-86.711,443.227,-1.220,0.620,1.040
459,45130.248000,-33.349,5.100,252.970,-231.546,-86.723,440.163,-1.220,0.620,0.040
460,45130.281000,-30.406,6.120,256.000,-234.146,-84.108,440.252,-1.220,0.620,0.040
461,45130.301000,-32.368,5.100,253.980,-229.032,-85.850,443.067,-0.220,-0.380,0.040
462,45130.316000,-33.349,5.100,252.970,-231.651,-88.454,444.135,-0.220,0.620,1.040
463,45130.341000,-30.406,6.120,257.010,-229.869,-86.721,442.097,0.780,-0.380,1.040
464,45130.359000,-31.387,5.100,251.961,-234.954,-85.853,438.285,-0.220,1.620,-0.960
465,45130.381000,-30.406,7.139,259.030,-231.577,-84.110,441.165,-1.220,0.620,1.040
466,45130.404000,-33.349,5.100,253.980,-232.494,-85.844,443.176,-1.220,0.620,0.040
467,45130.419000,-31.387,6.120,253.980,-235.038,-84.104,441.273,-1.220,0.620,-0.960
468,45130.436000,-29.425,6.120,256.000,-229.088,-84.974,445.059,-3.220,-0.380,0.040
469,45130.456000,-31.387,4.080,252.970,-230.732,-88.460,442.119,-3.220,-0.380,0.040
470,45130.471000,-29.425,6.120,257.010,-232.435,-88.460,441.179,-2.220,0.620,-0.960
471,45130.491000,-31.387,5.100,254.990,-229.899,-84.978,443.097,-3.220,-1.380,0.040
472,45130.513000,-31.387,6.120,253.980,-233.279,-84.980,440.222,-4.220,-0.380,-0.960
473,45130.545000,-30.406,6.120,256.000,-237.636,-83.230,441.357,-2.220,-0.380,-0.960
474,45130.557000,-32.368,5.100,251.961,-229.871,-85.851,442.100,0.780,0.620,0.040
475,45130.587000,-30.406,7.139,256.000,-235.036,-85.845,441.268,-1.220,0.620,-0.960
476,45130.602000,-32.368,5.100,253.980,-233.332,-85.845,442.208,-0.220,-0.380,0.040
477,45130.632000,-31.387,6.120,254.990,-235.088,-86.710,443.254,-0.220,1.620,0.040
478,45130.645000,-31.387,6.120,254.990,-232.460,-90.198,442.168,-1.220,0.620,-0.960
479,45130.665000,-32.368,6.120,254.990,-235.064,-84.972,442.265,-2.220,0.620,0.040
480,45130.682000,-30.406,6.120,258.020,-229.819,-84.115,440.116,-0.220,0.620,-0.960
481,45130.702000,-32.368,6.120,253.980,-234.116,-85.851,439.252,-0.220,0.620,-0.960
482,45130.722000,-31.387,6.120,256.000,-231.658,-84.102,444.148,-0.220,1.620,-0.960
483,45130.745000,-30.406,6.120,254.990,-232.492,-86.714,443.173,-0.220,1.620,-0.960
484,45130.760000,-32.368,4.080,252.970,-232.492,-86.714,443.173,-0.220,1.620,-0.960
485,45130.782000,-29.425,7.139,258.020,-229.002,-87.593,442.068,-2.220,0.620,0.040
486,45130.797000,-33.349,4.080,252.970,-234.167,-87.587,441.236,-2.220,0.620,1.040
487,45130.815000,-30.406,7.139,256.000,-230.707,-86.722,441.130,0.780,0.620,0.040
488,45130.860000,-31.387,5.100,254.990,-234.193,-88.455,442.228,2.780,1.620,1.040
489,45130.875000,-32.368,6.120,253.980,-229.002,-87.593,442.068,-0.220,1.620,2.040
490,45130.890000,-31.387,5.100,253.980,-235.927,-86.711,442.287,-3.220,-0.380,1.040
491,45130.900000,-31.387,5.100,254.990,-230.735,-86.720,442.124,-0.220,0.620,0.040
492,45130.915000,-30.406,6.120,257.010,-235.928,-85.841,442.290,-1.220,-0.380,-0.960
493,45130.930000,-32.368,4.080,252.970,-229.759,-87.602,438.117,1.780,-0.380,-0.960
494,45130.960000,-31.387,5.100,253.980,-237.603,-86.714,440.352,-1.220,1.620,1.040
495,45130.982000,-30.406,6.120,256.000,-233.333,-84.975,442.211,0.780,-0.380,-0.960
496,45131.0,-32.368,5.100,253.980,-227.353,-87.588,444.997,1.780,0.620,-0.960
497,45131.20000,-30.406,6.120,257.010,-232.388,-84.114,439.203,-1.220,1.620,-0.960
498,45131.42000,-32.368,5.100,253.980,-233.328,-88.456,442.201,-2.220,0.620,1.040
499,45131.65000,-32.368,6.120,254.990,-226.440,-83.243,442.994,-0.220,0.620,-0.960
500,45131.85000,-30.406,6.120,258.020,-232.441,-84.979,441.189,-2.220,-0.380,-0.960
501,45131.107000,-32.368,5.100,252.970,-234.142,-86.719,440.244,-3.220,-0.380,0.040
502,45131.130000,-30.406,8.159,258.020,-232.441,-84.979,441.189,1.780,1.620,1.040
503,45131.150000,-32.368,5.100,253.980,-234.170,-85.846,441.241,1.780,0.620,1.040
504,45131.167000,-31.387,5.100,253.980,-229.812,-88.467,440.103,-2.220,-0.380,1.040
505,45131.190000,-31.387,5.100,253.980,-235.901,-85.843,441.295,-0.220,0.620,2.040
506,45131.207000,-33.349,4.080,251.961,-231.626,-87.586,443.143,-0.220,1.620,1.040
507,45131.227000,-29.425,7.139,257.010,-234.115,-86.722,439.249,-0.220,1.620,0.040
508,45131.241000,-32.368,5.100,252.970,-232.521,-85.841,444.170,-2.220,0.620,1.040
509,45131.256000,-30.406,6.120,256.000,-231.627,-86.716,443.146,0.780,1.620,-0.960
510,45131.290000,-31.387,7.139,256.000,-230.680,-86.725,440.135,-2.220,1.620,1.040
511,45131.310000,-32.368,5.100,251.961,-232.465,-86.717,442.179,-0.220,1.620,0.040
512,45131.335000,-31.387,8.159,254.990,-229.842,-86.724,441.103,-0.220,2.620,-0.960
513,45131.355000,-31.387,6.120,252.970,-231.570,-88.461,441.152,1.780,1.620,0.040
514,45131.367000,-30.406,6.120,253.980,-230.655,-85.857,439.144,-3.220,-0.380,-0.960
515,45131.392000,-31.387,6.120,257.010,-231.546,-86.723,440.163,-0.220,0.620,-0.960
516,45131.410000,-32.368,4.080,253.980,-228.944,-90.209,440.071,0.780,0.620,0.040
517,45131.432000,-29.425,8.159,258.020,-229.871,-85.851,442.100,-0.220,-0.380,1.040
518,45131.452000,-31.387,5.100,251.961,-234.146,-84.108,440.252,-2.220,-0.380,1.040
519,45131.475000,-28.444,5.100,258.020,-231.596,-89.329,442.144,0.780,1.620,0.040
520,45131.490000,-33.349,6.120,257.010,-234.172,-84.976,441.244,0.780,1.620,0.040
521,45131.512000,-32.368,5.100,252.970,-230.735,-86.720,442.124,-1.220,-0.380,1.040
522,45131.532000,-29.425,6.120,256.000,-235.874,-85.846,440.301,0.780,0.620,0.040
523,45131.550000,-33.349,5.100,252.970,-232.435,-88.460,441.179,-0.220,0.620,1.040
524,45131.575000,-31.387,8.159,257.010,-236.739,-85.845,440.328,-2.220,-0.380,-0.960
525,45131.590000,-31.387,5.100,253.980,-230.843,-86.709,446.102,-1.220,-0.380,-0.960
526,45131.618000,-31.387,5.100,253.980,-233.383,-87.581,444.192,0.780,0.620,0.040
527,45131.632000,-32.368,5.100,252.970,-231.576,-84.980,441.162,-0.220,0.620,-0.960
528,45131.655000,-30.406,7.139,258.020,-233.355,-88.453,443.195,-0.220,0.620,0.040
529,45131.690000,-32.368,5.100,253.980,-233.306,-84.977,441.216,-0.220,0.620,0.040
530,45131.700000,-30.406,7.139,257.010,-229.868,-87.591,442.095,-1.220,1.620,0.040
531,45131.720000,-31.387,6.120,254.990,-232.522,-84.971,444.173,-1.220,-0.380,-0.960
532,45131.745000,-31.387,5.100,257.010,-230.705,-88.463,441.125,0.780,1.620,1.040
533,45131.754000,-29.425,6.120,257.010,-233.362,-84.102,443.208,-0.220,0.620,0.040
534,45131.769000,-30.406,6.120,254.990,-228.136,-88.465,442.038,-0.220,1.620,0.040
535,45131.788000,-29.425,6.120,256.000,-235.037,-84.975,441.271,1.780,2.620,-0.960
536,45131.811000,-31.387,5.100,253.980,-228.947,-88.468,440.076,0.780,0.620,0.040
537,45131.827000,-32.368,7.139,252.970,-234.225,-85.841,443.230,-2.220,-0.380,-0.960
538,45131.847000,-30.406,7.139,257.010,-233.326,-89.326,442.198,-2.220,-0.380,0.040
539,45131.870000,-30.406,6.120,253.980,-235.061,-86.713,442.260,0.780,1.620,1.040
540,45131.891000,-29.425,6.120,257.010,-234.200,-84.103,442.241,-1.220,1.620,0.040
541,45131.912000,-31.387,5.100,253.980,-236.789,-88.450,442.309,-2.220,0.620,1.040
542,45131.930000,-30.406,5.100,252.970,-235.981,-86.706,444.276,-0.220,0.620,0.040
543,45131.945000,-30.406,7.139,256.000,-234.193,-88.455,442.228,1.780,1.620,1.040
544,45131.970000,-31.387,4.080,251.961,-232.435,-88.460,441.179,-1.220,0.620,-0.960
545,45131.990000,-30.406,8.159,257.010,-232.441,-84.979,441.189,-1.220,0.620,0.040
546,45132.15000,-31.387,5.100,254.990,-231.626,-87.586,443.143,0.780,1.620,0.040
547,45132.37000,-32.368,6.120,253.980,-231.600,-86.718,442.151,2.780,1.620,1.040
548,45132.55000,-30.406,5.100,257.010,-235.036,-85.845,441.268,-1.220,-0.380,0.040
549,45132.80000,-33.349,4.080,250.951,-230.787,-87.585,444.111,-0.220,1.620,0.040
550,45132.95000,-29.425,7.139,256.000,-235.875,-84.976,440.303,1.780,0.620,0.040
551,45132.125000,-32.368,5.100,251.961,-231.546,-86.723,440.163,-0.220,1.620,1.040
552,45132.155000,-31.387,6.120,252.970,-235.901,-85.843,441.295,-2.220,0.620,1.040
553,45132.170000,-30.406,6.120,257.010,-229.031,-86.720,443.065,-0.220,0.620,2.040
554,45132.185000,-33.349,5.100,252.970,-230.703,-89.333,441.122,1.780,1.620,1.040
555,45132.192000,-29.425,8.159,256.000,-230.680,-86.725,440.135,2.780,2.620,1.040
556,45132.215000,-32.368,5.100,254.990,-235.117,-85.837,444.252,-1.220,-0.380,0.040
557,45132.237000,-30.406,7.139,254.990,-233.306,-84.977,441.216,2.780,-0.380,2.040
558,45132.262000,-26.483,-3.060,257.010,-235.120,-84.096,444.257,15.780,-5.380,2.040
559,45132.287000,-32.368,1.020,254.990,-234.115,-86.722,439.249,-3.220,9.620,5.040
560,45132.300000,-27.464,2.040,258.020,-234.166,-88.457,441.233,-22.220,-9.380,17.040
561,45132.322000,-31.387,-3.060,253.980,-237.577,-85.846,439.361,9.780,-0.380,7.040
562,45132.337000,-26.483,-4.080,257.010,-234.226,-84.971,443.233,2.780,5.620,6.040
563,45132.360000,-29.425,3.060,257.010,-234.986,-83.239,439.287,-8.220,-8.380,32.040
564,45132.377000,-30.406,-3.060,253.980,-233.282,-83.239,440.227,-8.220,-3.380,39.040
565,45132.402000,-29.425,-2.040,258.020,-237.555,-83.237,438.374,7.780,7.620,38.040
566,45132.420000,-24.521,-19.378,253.980,-230.714,-82.371,441.143,2.780,7.620,55.040
567,45132.442000,-28.444,-7.139,259.030,-239.444,-85.830,444.387,-8.220,-5.380,87.040
568,45132.465000,-23.540,-21.418,256.000,-230.659,-83.246,439.151,-10.220,-0.380,102.040
569,45132.495000,-28.444,-13.259,253.980,-235.011,-84.107,440.279,-0.220,9.620,103.040
570,45132.515000,-26.483,-11.219,259.030,-228.067,-80.639,439.078,-6.220,-3.380,110.040
571,45132.530000,-33.349,-4.080,253.980,-235.937,-80.619,442.305,-27.220,1.620,94.040
572,45132.545000,-27.464,-10.199,254.990,-230.526,-81.518,434.184,8.780,-0.380,98.040
573,45132.550000,-28.444,-11.219,258.020,-232.288,-78.902,435.241,-7.220,16.620,83.040
574,45132.580000,-32.368,1.020,254.990,-234.043,-80.637,436.284,-33.220,-12.380,80.040
575,45132.602000,-29.425,-6.120,253.980,-233.986,-82.383,434.290,4.780,-8.380,61.040
576,45132.626000,-31.387,-8.159,252.970,-237.480,-78.894,435.403,17.780,14.620,63.040
577,45132.650000,-32.368,2.040,260.039,-232.261,-78.905,434.246,-12.220,6.620,44.040
578,45132.660000,-35.310,-2.040,252.970,-235.640,-79.777,431.369,-24.220,-13.380,27.040
579,45132.680000,-32.368,-2.040,253.980,-231.371,-77.168,433.230,18.780,13.620,12.040
580,45132.697000,-31.387,3.060,260.039,-237.377,-75.423,431.436,11.780,5.620,-0.960
581,45132.722000,-36.291,7.139,253.980,-232.127,-78.047,429.276,-28.220,1.620,-16.960
582,45132.747000,-32.368,9.179,253.980,-235.588,-78.042,429.385,-18.220,-13.380,-21.960
583,45132.762000,-36.291,14.279,252.970,-237.235,-79.787,426.451,33.780,9.620,-30.960
584,45132.785000,-33.349,13.259,253.980,-236.372,-78.048,426.429,-4.220,-2.380,-40.960
585,45132.800000,-31.387,13.259,256.000,-238.917,-76.308,424.526,-0.220,-8.380,-32.960
586,45132.820000,-33.349,15.299,252.970,-231.961,-79.804,423.304,8.780,-0.380,-29.960
587,45132.847000,-31.387,18.359,257.010,-237.157,-77.184,423.475,6.780,4.620,-40.960
588,45132.860000,-35.310,26.518,253.980,-240.561,-79.795,421.587,-2.220,-1.380,-60.960
589,45132.875000,-35.310,30.598,252.970,-239.726,-77.183,422.562,-2.220,-11.380,-82.960
590,45132.900000,-36.291,36.717,256.000,-239.611,-81.545,418.571,21.780,2.620,-111.960
591,45132.920000,-36.291,38.757,252.970,-243.075,-79.798,418.685,13.780,-3.380,-111.960
592,45132.950000,-30.406,46.916,257.010,-237.876,-84.158,418.509,2.780,-4.380,-87.960
593,45132.965000,-30.406,50.996,252.970,-242.238,-78.927,419.655,-0.220,0.620,-82.960
594,45132.987000,-33.349,46.916,253.980,-237.854,-80.680,417.525,-2.220,4.620,-46.960
595,45133.5000,-28.444,2.040,256.000,-239.610,-82.415,418.568,29.780,-2.380,-50.960
596,45133.22000,-48.061,59.155,258.020,-235.281,-83.292,418.430,-11.220,9.620,-232.960
597,45133.51000,-45.119,67.315,247.921,-237.959,-83.280,421.495,-17.220,-37.380,-263.960
598,45133.69000,-44.138,55.076,246.911,-235.303,-86.771,419.414,131.780,35.620,-243.960
599,45133.91000,-33.349,30.598,261.049,-230.161,-89.385,421.233,105.780,26.620,-176.960
600,45133.107000,-38.253,37.737,259.030,-234.492,-86.767,421.376,-33.220,-14.380,-142.960
601,45133.125000,-38.253,30.598,245.901,-228.458,-88.515,422.175,-35.220,-36.380,-177.960
602,45133.147000,-33.349,29.578,253.980,-230.186,-90.253,422.225,90.780,30.620,-248.960
603,45133.170000,-32.368,20.398,258.020,-234.453,-93.732,420.361,44.780,-2.380,-233.960
604,45133.195000,-24.521,13.259,258.020,-236.321,-92.846,425.390,-19.220,-20.380,-139.960
605,45133.202000,-26.483,7.139,252.970,-236.371,-95.452,427.371,-8.220,-11.380,-88.960
606,45133.227000,-29.425,11.219,257.010,-232.017,-95.462,426.241,21.780,16.620,-30.960
607,45133.247000,-28.444,11.219,259.030,-225.199,-98.074,429.994,-9.220,-0.380,-11.960
608,45133.267000,-28.444,-1.020,251.961,-231.346,-92.834,433.183,-7.220,-7.380,-12.960
609,45133.285000,-27.464,4.080,259.030,-229.611,-95.448,433.121,2.780,10.620,-27.960
610,45133.307000,-29.425,0.000,254.990,-233.048,-93.704,432.240,13.780,1.620,-15.960
611,45133.330000,-26.483,1.020,253.980,-231.342,-95.445,433.175,-16.220,-1.380,-1.960
612,45133.360000,-27.464,4.080,256.000,-231.315,-95.448,432.181,-11.220,2.620,11.040
613,45133.376000,-33.349,7.139,252.970,-228.881,-95.436,438.066,-11.220,3.620,-6.960
614,45133.391000,-31.387,8.159,256.000,-233.210,-94.559,438.204,11.780,-7.380,-25.960
615,45133.409000,-32.368,9.179,254.990,-232.287,-96.306,436.183,-4.220,10.620,-70.960
616,45133.431000,-28.444,5.100,252.970,-234.101,-95.425,439.223,12.780,0.620,-70.960
617,45133.448000,-25.502,-5.100,257.010,-229.878,-98.033,443.058,2.780,-0.380,-50.960
618,45133.468000,-36.291,9.179,253.980,-230.632,-99.782,439.102,-2.220,9.620,-53.960
619,45133.486000,-31.387,6.120,253.980,-229.902,-99.771,444.047,-23.220,-15.380,-67.960
620,45133.511000,-33.349,2.040,253.980,-229.872,-101.514,443.048,33.780,11.620,-86.960
621,45133.536000,-26.483,-7.139,258.020,-230.821,-100.635,446.061,35.780,2.620,-95.960
622,45133.556000,-28.444,-7.139,258.020,-229.929,-99.768,445.042,7.780,0.620,-104.960
623,45133.574000,-29.425,-17.339,252.970,-233.361,-101.506,444.151,-1.220,-10.380,-85.960
624,45133.591000,-24.521,-21.418,259.030,-229.170,-101.500,448.987,30.780,8.620,-71.960
625,45133.611000,-29.425,-18.359,257.010,-229.223,-102.365,450.974,15.780,2.620,-71.960
626,45133.633000,-25.502,-23.458,258.020,-230.873,-101.500,448.047,-11.220,-10.380,-70.960
627,45133.656000,-23.540,-38.757,254.990,-233.470,-101.495,448.128,11.780,-6.380,-36.960
628,45133.673000,-22.559,-45.896,258.020,-228.332,-101.499,449.955,39.780,12.620,-34.960
629,45133.699000,-21.579,-45.896,259.030,-234.443,-101.484,452.133,-7.220,-1.380,-24.960
630,45133.716000,-19.617,-37.737,252.970,-235.256,-100.617,450.174,4.780,-8.380,20.040
631,45133.736000,-43.157,34.677,259.030,-231.842,-104.969,452.042,-101.220,26.620,-77.960
632,45133.753000,-26.483,-8.159,248.931,-231.845,-103.229,452.047,6.780,-30.380,49.040
633,45133.773000,-32.368,6.120,258.020,-234.416,-101.486,451.139,28.780,21.620,5.040
634,45133.796000,-26.483,5.100,260.039,-231.789,-104.104,450.055,12.780,8.620,13.040
635,45133.826000,-26.483,-6.120,250.951,-223.107,-104.991,448.787,-48.220,-21.380,48.040
636,45133.826000,-28.444,1.020,256.000,-230.085,-104.104,450.996,19.780,16.620,66.040
637,45133.847000,-28.444,-5.100,259.030,-231.900,-102.353,454.038,13.780,8.620,83.040
638,45133.881000,-32.368,-4.080,253.980,-228.387,-100.623,451.946,-23.220,-10.380,80.040
639,45133.889000,-30.406,-6.120,253.980,-228.382,-104.105,451.936,-26.220,-13.380,62.040
640,45133.908000,-36.291,-7.139,256.000,-233.552,-100.617,451.114,16.780,11.620,-7.960
641,45133.938000,-30.406,-12.239,261.049,-228.327,-104.110,449.947,30.780,0.620,-85.960
642,45133.953000,-30.406,-14.279,256.000,-231.709,-103.242,447.074,9.780,-1.380,-122.960
643,45133.971000,-27.464,-15.299,254.990,-229.140,-103.243,447.988,12.780,-1.380,-110.960
644,45133.994000,-26.483,-5.100,259.030,-232.626,-104.976,449.085,9.780,3.620,-93.960
645,45134.16000,-25.502,-15.299,254.990,-229.141,-102.373,447.990,13.780,-0.380,-77.960
646,45134.36000,-24.521,-5.100,259.030,-230.037,-100.628,449.017,8.780,2.620,-57.960
647,45134.53000,-26.483,-8.159,256.000,-229.087,-102.378,446.001,13.780,-0.380,-36.960
648,45134.76000,-24.521,-11.219,257.010,-233.357,-104.117,444.143,10.780,-6.380,-13.960
649,45134.101000,-26.483,-2.040,260.039,-229.003,-104.126,443.013,10.780,5.620,14.040
650,45134.121000,-28.444,-7.139,254.990,-233.307,-101.511,442.162,-8.220,0.620,36.040
651,45134.136000,-25.502,-7.139,258.020,-231.656,-102.376,445.088,-8.220,-0.380,39.040
652,45134.146000,-26.483,-8.159,256.000,-227.301,-103.256,443.955,14.780,6.620,38.040
653,45134.166000,-24.521,-1.020,259.030,-231.493,-102.392,439.121,-16.220,6.620,40.040
654,45134.191000,-24.521,-1.020,254.990,-232.356,-104.131,439.143,-29.220,-2.380,66.040
655,45134.216000,-29.425,4.080,253.980,-232.391,-98.907,440.153,-7.220,7.620,80.040
656,45134.236000,-24.521,-1.020,259.030,-229.712,-99.789,437.086,5.780,8.620,81.040
657,45134.261000,-30.406,1.020,252.970,-234.065,-100.650,438.213,-12.220,-0.380,92.040
658,45134.288000,-27.464,1.020,254.990,-228.873,-100.658,438.051,-8.220,1.620,97.040
659,45134.313000,-27.464,1.020,254.990,-233.902,-100.665,432.247,-11.220,4.620,79.040
660,45134.334000,-31.387,3.060,254.990,-226.143,-99.805,433.000,-8.220,1.620,64.040
661,45134.350000,-32.368,4.080,254.990,-232.174,-98.927,432.198,-17.220,-0.380,79.040
662,45134.360000,-30.406,3.060,254.990,-232.177,-97.187,432.203,-8.220,3.620,89.040
663,45134.387000,-31.387,0.000,253.980,-232.126,-95.451,430.219,5.780,-0.380,131.040
664,45134.405000,-29.425,2.040,258.020,-229.481,-91.979,428.159,-27.220,10.620,107.040
665,45134.425000,-35.310,6.120,253.980,-232.043,-96.329,427.233,-5.220,-16.380,83.040
666,45134.445000,-28.444,-9.179,251.961,-234.592,-91.979,425.338,-1.220,17.620,34.040
667,45134.462000,-35.310,7.139,259.030,-231.963,-95.467,424.252,-1.220,-20.380,34.040
668,45134.480000,-32.368,-8.159,251.961,-237.161,-91.977,424.425,-27.220,-2.380,22.040
669,45134.495000,-39.234,13.259,258.020,-232.744,-97.214,421.291,3.780,0.620,-20.960
670,45134.517000,-32.368,1.020,252.970,-238.807,-93.723,421.491,12.780,2.620,-44.960
671,45134.542000,-35.310,8.159,257.010,-233.509,-92.001,417.355,9.780,1.620,-65.960
672,45134.567000,-34.330,5.100,256.000,-239.538,-92.864,416.548,-17.220,-16.380,-68.960
673,45134.580000,-33.349,4.080,251.961,-237.779,-93.740,415.497,5.780,5.620,-37.960
674,45134.600000,-35.310,18.359,257.010,-237.758,-90.261,414.513,-10.220,1.620,-33.960
675,45134.625000,-38.253,14.279,253.980,-237.675,-91.139,411.527,-8.220,-0.380,-55.960
676,45134.640000,-36.291,15.299,252.970,-242.840,-91.133,410.695,20.780,2.620,-29.960
677,45134.663000,-32.368,14.279,257.010,-237.564,-92.890,407.544,2.780,17.620,-46.960
678,45134.686000,-36.291,30.598,252.970,-244.435,-91.144,405.777,-17.220,-12.380,-46.960
679,45134.703000,-34.330,38.757,253.980,-240.978,-88.538,405.676,-20.220,16.620,-58.960
680,45134.738000,-36.291,43.857,251.961,-244.379,-92.019,403.786,10.780,16.620,-51.960
681,45134.758000,-34.330,44.876,256.000,-242.599,-89.416,401.750,7.780,5.620,-28.960
682,45134.773000,-35.310,49.976,254.990,-247.922,-92.006,406.877,3.780,13.620,-24.960
683,45134.788000,-38.253,62.215,253.980,-245.279,-87.663,404.820,-1.220,14.620,-25.960
684,45134.811000,-40.215,64.255,252.970,-243.513,-92.891,403.756,4.780,1.620,-7.960
685,45134.816000,-51.985,46.916,249.941,-246.139,-91.143,404.837,15.780,7.620,-14.960
686,45134.843000,-19.617,-18.359,256.000,-242.683,-87.668,404.739,72.780,-10.380,38.040
687,45134.868000,-33.349,11.219,264.079,-249.546,-91.143,402.956,-64.220,13.620,-68.960
688,45134.883000,-31.387,15.299,248.931,-245.222,-89.409,402.826,-60.220,-43.380,-5.960
689,45134.908000,-31.387,29.578,252.970,-243.571,-90.275,405.753,75.780,39.620,17.040
690,45134.928000,-39.234,32.637,253.980,-246.980,-89.404,403.875,-9.220,1.620,52.040
691,45134.948000,-38.253,41.817,261.049,-238.243,-90.296,400.617,-35.220,-2.380,42.040
692,45134.966000,-44.138,60.175,251.961,-243.623,-92.010,407.736,-49.220,-17.380,4.040
693,45134.983000,-38.253,38.757,245.901,-239.212,-93.766,404.612,28.780,6.620,-2.960
694,45134.993000,-37.272,40.797,260.039,-245.246,-91.147,403.815,39.780,15.620,-16.960
695,45135.23000,-40.215,33.657,254.990,-244.458,-93.752,406.764,-53.220,-37.380,-43.960
696,45135.48000,-34.330,28.558,251.961,-243.674,-93.746,409.720,-21.220,-17.380,-69.960
697,45135.66000,-38.253,25.498,251.961,-238.449,-97.238,408.552,43.780,10.620,-73.960
698,45135.91000,-35.310,13.259,254.990,-246.316,-98.958,411.775,18.780,4.620,-67.960
699,45135.103000,-34.330,17.339,259.030,-236.855,-96.357,413.473,-27.220,-16.380,-74.960
700,45135.126000,-29.425,2.040,250.951,-241.154,-97.223,412.612,23.780,2.620,-73.960
701,45135.145000,-29.425,6.120,258.020,-235.176,-98.096,415.403,21.780,11.620,-96.960
702,45135.185000,-29.425,8.159,256.000,-239.581,-99.822,418.516,8.780,-16.380,-94.960
703,45135.205000,-32.368,13.259,251.961,-233.461,-105.059,416.322,-24.220,-15.380,-81.960
704,45135.221000,-27.464,2.040,254.990,-235.255,-99.829,418.381,31.780,9.620,-67.960
705,45135.229000,-30.406,3.060,258.020,-231.843,-102.440,420.254,25.780,4.620,-66.960
706,45135.253000,-27.464,3.060,257.010,-235.362,-100.688,422.356,-34.220,-14.380,-70.960
707,45135.268000,-30.406,7.139,249.941,-231.058,-103.304,423.207,-1.220,-0.380,-51.960
708,45135.291000,-28.444,6.120,252.970,-225.920,-103.307,425.033,29.780,9.620,-41.960
709,45135.311000,-31.387,8.159,257.010,-228.492,-101.565,424.125,9.780,5.620,-26.960
710,45135.326000,-35.310,13.259,251.961,-226.003,-102.429,428.019,-33.220,-8.380,-25.960
711,45135.348000,-30.406,16.319,253.980,-229.487,-105.032,429.115,4.780,0.620,-32.960
712,45135.374000,-33.349,13.259,253.980,-230.354,-104.160,429.144,23.780,9.620,-28.960
713,45135.391000,-30.406,6.120,256.000,-230.384,-102.417,430.144,-6.220,-6.380,-16.960
714,45135.413000,-29.425,-3.060,256.000,-228.783,-105.888,435.052,-7.220,-1.380,-17.960
715,45135.431000,-29.425,1.020,253.980,-228.784,-105.018,435.054,-4.220,0.620,-22.960
716,45135.461000,-31.387,7.139,257.010,-228.809,-106.756,436.044,-3.220,-1.380,-41.960
717,45135.481000,-34.330,10.199,252.970,-230.591,-108.488,438.082,2.780,2.620,-58.960
718,45135.496000,-29.425,9.179,253.980,-229.754,-107.617,439.051,2.780,1.620,-47.960
719,45135.512000,-31.387,5.100,256.000,-230.652,-104.131,440.083,9.780,1.620,-21.960
720,45135.531000,-28.444,-7.139,253.980,-228.996,-108.478,443.000,11.780,-1.380,-12.960
721,45135.550000,-29.425,-1.020,258.020,-227.269,-105.870,442.953,-16.220,1.620,-24.960
722,45135.570000,-31.387,-9.179,251.961,-226.321,-106.749,439.940,-0.220,-7.380,-23.960
723,45135.592000,-23.540,-11.219,257.010,-228.188,-106.734,444.967,21.780,4.620,-8.960
724,45135.615000,-32.368,3.060,257.010,-229.940,-110.210,446.005,-27.220,0.620,-23.960
725,45135.630000,-23.540,-12.239,252.970,-231.679,-104.985,446.075,3.780,-20.380,42.040
726,45135.645000,-23.540,-18.359,259.030,-226.565,-106.726,448.890,35.780,19.620,36.040
727,45135.666000,-30.406,-10.199,254.990,-233.513,-108.453,450.097,0.780,-17.380,40.040
728,45135.689000,-23.540,-20.398,254.990,-230.836,-107.595,447.034,-12.220,-5.380,37.040
729,45135.711000,-23.540,-33.657,259.030,-229.184,-109.330,449.958,13.780,9.620,46.040
730,45135.736000,-23.540,-33.657,254.990,-231.780,-109.326,450.040,-2.220,-11.380,61.040
731,45135.753000,-23.540,-46.916,256.000,-227.482,-108.460,450.901,2.780,2.620,78.040
732,45135.786000,-31.387,-41.817,254.990,-232.731,-106.706,453.058,-16.220,1.620,64.040
733,45135.798000,-27.464,-22.438,257.010,-230.921,-105.846,450.023,-8.220,7.620,23.040
734,45135.826000,-40.215,19.378,254.990,-234.409,-105.838,451.126,-55.220,16.620,-34.960
735,45135.841000,-24.521,-2.040,253.980,-229.217,-105.846,450.963,28.780,-13.380,62.040
736,45135.858000,-29.425,5.100,262.059,-231.837,-107.580,452.034,-31.220,19.620,32.040
737,45135.878000,-32.368,7.139,250.951,-228.327,-104.110,449.947,1.780,-16.380,38.040
738,45135.888000,-31.387,8.159,254.990,-229.189,-106.719,449.966,-8.220,6.620,27.040
739,45135.913000,-32.368,1.020,254.990,-233.463,-105.847,448.115,14.780,8.620,33.040
740,45135.936000,-28.444,0.000,257.010,-226.621,-105.851,450.882,-11.220,-1.380,31.040
741,45135.966000,-31.387,0.000,254.990,-233.628,-104.091,454.087,11.780,0.620,33.040
742,45135.968000,-30.406,-4.080,257.010,-234.438,-104.965,452.123,-5.220,2.620,20.040
743,45135.991000,-30.406,1.020,257.010,-228.326,-104.980,449.944,-1.220,0.620,13.040
744,45136.21000,-30.406,-9.179,251.961,-232.623,-106.716,449.080,11.780,-1.380,6.040
745,45136.38000,-27.464,-5.100,259.030,-229.109,-105.857,446.985,-2.220,2.620,-9.960
746,45136.61000,-28.444,-10.199,254.990,-231.783,-107.585,450.045,1.780,0.620,-3.960
747,45136.78000,-29.425,-7.139,256.000,-232.627,-104.105,449.088,1.780,0.620,-5.960
748,45136.96000,-30.406,-1.020,257.010,-231.705,-105.853,447.067,-8.220,-1.380,-6.960
749,45136.118000,-28.444,-11.219,253.980,-231.736,-103.239,448.069,15.780,-3.380,-0.960
750,45136.139000,-27.464,-3.060,260.039,-229.973,-106.726,447.010,-15.220,4.620,-2.960
751,45136.161000,-28.444,-6.120,252.970,-234.275,-104.981,446.156,-1.220,-7.380,21.040
752,45136.178000,-29.425,0.000,258.020,-228.240,-107.599,446.953,-2.220,7.620,29.040
753,45136.203000,-28.444,-5.100,257.010,-233.415,-101.501,446.139,-10.220,-6.380,37.040
754,45136.221000,-29.425,-12.239,253.980,-232.599,-104.978,448.091,-6.220,-1.380,42.040
755,45136.243000,-25.502,-11.219,260.039,-230.791,-102.378,445.061,4.780,2.620,44.040
756,45136.263000,-31.387,0.000,254.990,-233.361,-101.506,444.151,-19.220,0.620,22.040
757,45136.298000,-29.425,-3.060,253.980,-235.900,-103.248,442.238,2.780,-1.380,-6.960
758,45136.313000,-32.368,-6.120,257.010,-232.441,-101.512,442.134,17.780,8.620,-46.960
759,45136.343000,-34.330,-4.080,252.970,-232.463,-104.991,443.119,0.780,-7.380,-73.960
760,45136.358000,-31.387,-2.040,256.000,-220.265,-105.889,439.753,2.780,-4.380,-82.960
761,45136.361000,-32.368,1.020,254.990,-228.870,-102.399,438.046,19.780,4.620,-83.960
762,45136.386000,-32.368,6.120,257.010,-231.515,-105.871,440.105,5.780,-0.380,-91.960
763,45136.396000,-36.291,6.120,252.970,-227.130,-108.494,437.973,1.780,-2.380,-136.960
764,45136.426000,-36.291,4.080,251.961,-231.492,-103.262,439.119,27.780,0.620,-175.960
765,45136.443000,-27.464,-11.219,260.039,-227.079,-105.888,435.992,27.780,2.620,-152.960
766,45136.463000,-30.406,-4.080,253.980,-228.727,-106.763,433.060,8.780,1.620,-138.960
767,45136.488000,-25.502,5.100,256.000,-228.755,-106.761,434.055,-4.220,-6.380,-102.960
768,45136.506000,-29.425,7.139,253.980,-232.213,-108.496,434.158,12.780,6.620,-67.960
769,45136.531000,-27.464,4.080,254.990,-227.805,-108.511,431.039,5.780,3.620,-30.960
770,45136.543000,-26.483,4.080,257.010,-228.643,-108.512,430.072,-8.220,-1.380,1.040
771,45136.568000,-26.483,5.100,254.990,-227.672,-106.783,426.072,-13.220,2.620,43.040
772,45136.591000,-23.540,8.159,258.020,-226.019,-109.389,428.993,-10.220,0.620,69.040
773,45136.608000,-26.483,8.159,253.980,-232.841,-104.166,425.248,-12.220,-0.380,112.040
774,45136.633000,-27.464,7.139,256.000,-225.912,-108.529,425.018,-13.220,1.620,141.040
775,45136.648000,-26.483,4.080,256.000,-232.757,-105.915,422.259,-18.220,3.620,160.040
776,45136.668000,-28.444,-1.020,252.970,-229.267,-106.793,421.154,-8.220,-0.380,185.040
777,45136.693000,-26.483,4.080,259.030,-235.335,-100.691,421.362,-26.220,0.620,188.040
778,45136.739000,-32.368,5.100,253.980,-230.898,-101.579,417.246,-23.220,1.620,183.040
779,45136.739000,-32.368,14.279,256.000,-236.146,-100.695,419.400,-33.220,-4.380,163.040
780,45136.755000,-36.291,16.319,253.980,-230.038,-98.099,417.229,-11.220,-0.380,123.040
781,45136.762000,-34.330,8.159,252.970,-239.534,-95.475,416.541,-4.220,1.620,132.040
782,45136.785000,-30.406,15.299,257.010,-237.719,-97.226,413.498,-27.220,15.620,173.040
783,45136.803000,-35.310,23.458,251.961,-238.590,-93.744,413.535,-21.220,7.620,174.040
784,45136.825000,-34.330,32.637,254.990,-235.103,-92.881,412.435,-33.220,-2.380,150.040
785,45136.847000,-44.138,44.876,251.961,-242.080,-92.865,414.641,2.780,16.620,77.040
786,45136.865000,-47.080,48.956,250.951,-240.270,-92.005,411.606,-21.220,12.620,34.040
787,45136.892000,-39.234,44.876,254.990,-235.997,-92.007,413.459,-24.220,4.620,38.040
788,45136.910000,-43.157,50.996,253.980,-240.244,-91.138,410.614,16.780,22.620,67.040
789,45136.932000,-44.138,56.096,256.000,-240.217,-91.140,409.619,4.780,10.620,64.040
790,45136.953000,-48.061,53.036,250.951,-239.406,-91.136,411.581,-33.220,-4.380,20.040
791,45136.976000,-26.483,-10.199,251.961,-241.947,-91.137,409.674,40.780,-8.380,15.040
792,45136.988000,-30.406,3.060,266.099,-241.968,-95.486,410.655,73.780,36.620,-7.960
793,45137.6000,-42.176,24.478,252.970,-238.482,-93.754,409.557,-51.220,-23.380,-50.960
794,45137.28000,-30.406,14.279,248.931,-241.106,-92.877,410.636,-49.220,-29.380,-59.960
795,45137.46000,-37.272,31.618,256.000,-241.973,-92.005,410.665,43.780,28.620,-70.960
796,45137.61000,-35.310,32.637,259.030,-241.949,-90.267,409.676,52.780,18.620,-43.960
797,45137.81000,-37.272,39.777,251.961,-240.267,-93.746,411.600,-56.220,-23.380,-33.960
798,45137.103000,-41.195,39.777,247.921,-242.109,-91.992,415.638,-7.220,-4.380,-42.960
799,45137.128000,-33.349,33.657,259.030,-236.805,-93.752,411.492,59.780,16.620,-54.960
800,45137.148000,-36.291,27.538,256.000,-243.753,-95.478,412.698,-1.220,7.620,-64.960
801,45137.173000,-36.291,27.538,256.000,-239.377,-92.009,410.584,-13.220,-24.380,-61.960
802,45137.201000,-33.349,22.438,251.961,-241.212,-94.607,414.608,12.780,-7.380,-41.960
803,45137.226000,-28.444,12.239,253.980,-240.374,-94.606,415.576,22.780,17.620,-36.960
804,45137.241000,-36.291,13.259,257.010,-236.123,-98.086,418.413,-23.220,-16.380,-39.960
805,45137.271000,-33.349,16.319,256.000,-236.883,-96.355,414.468,-11.220,-6.380,-49.960
806,45137.273000,-36.291,18.359,251.961,-234.394,-97.219,418.362,12.780,-2.380,-49.960
807,45137.291000,-33.349,12.239,253.980,-235.260,-96.347,418.391,23.780,9.620,-51.960
808,45137.316000,-34.330,20.398,259.030,-233.582,-97.215,420.323,-12.220,-15.380,-37.960
809,45137.333000,-31.387,11.219,250.951,-229.280,-98.960,421.177,-4.220,-2.380,-19.960
810,45137.351000,-30.406,15.299,256.000,-230.198,-99.824,423.190,18.780,9.620,-15.960
811,45137.376000,-32.368,11.219,253.980,-237.124,-98.072,423.413,-17.220,-2.380,-25.960
812,45137.394000,-32.368,15.299,257.010,-230.224,-100.692,424.182,-19.220,-7.380,-29.960
813,45137.408000,-33.349,11.219,252.970,-232.900,-101.550,427.245,2.780,2.620,-25.960
814,45137.431000,-35.310,15.299,253.980,-229.521,-100.678,430.122,10.780,9.620,-50.960
815,45137.453000,-33.349,15.299,258.020,-224.379,-103.292,431.940,11.780,-11.380,-57.960
816,45137.473000,-29.425,2.040,256.000,-230.385,-101.546,430.147,0.780,10.620,-66.960
817,45137.491000,-31.387,8.159,256.000,-230.382,-103.287,430.141,-0.220,-10.380,-68.960
818,45137.516000,-29.425,3.060,252.970,-230.468,-100.668,433.133,-6.220,-2.380,-72.960
819,45137.536000,-29.425,-3.060,253.980,-226.108,-104.159,431.992,10.780,4.620,-81.960
820,45137.551000,-29.425,2.040,260.039,-232.219,-105.015,434.168,-0.220,5.620,-103.960
821,45137.573000,-32.368,3.060,252.970,-232.297,-106.747,437.147,1.780,-8.380,-95.960
822,45137.598000,-24.521,-8.159,258.020,-232.300,-105.007,437.152,32.780,8.620,-75.960
823,45137.616000,-29.425,-11.219,258.020,-228.028,-105.009,439.005,-10.220,-3.380,-86.960
824,45137.646000,-29.425,-3.060,256.000,-232.302,-104.136,437.154,-13.220,-11.380,-77.960
825,45137.666000,-24.521,-15.299,256.000,-228.135,-105.869,442.980,13.780,3.620,-76.960
826,45137.686000,-22.559,-22.438,259.030,-229.001,-104.997,443.010,1.780,6.620,-65.960
827,45137.701000,-22.559,-11.219,259.030,-226.373,-108.485,441.924,-36.220,-4.380,-59.960
828,45137.721000,-28.444,-5.100,252.970,-233.298,-106.733,442.146,14.780,-1.380,-48.960
829,45137.736000,-24.521,-12.239,253.980,-228.106,-106.741,441.983,28.780,8.620,-61.960
830,45137.753000,-27.464,-8.159,262.059,-229.023,-108.476,443.994,-2.220,4.620,-68.960
831,45137.778000,-25.502,-17.339,252.970,-228.182,-110.215,444.956,-2.220,-10.380,-73.960
832,45137.796000,-28.444,-8.159,259.030,-231.591,-109.344,443.078,39.780,0.620,-73.960
833,45137.821000,-24.521,-14.279,254.990,-227.264,-109.351,442.943,-16.220,7.620,-67.960
834,45137.838000,-27.464,-7.139,258.020,-225.559,-110.222,443.880,2.780,-14.380,-49.960
835,45137.861000,-25.502,-10.199,256.000,-229.045,-111.954,444.978,-10.220,4.620,-65.960
836,45137.878000,-27.464,-13.259,253.980,-228.125,-111.961,442.962,30.780,-2.380,-50.960
837,45137.886000,-25.502,-13.259,259.030,-229.913,-110.212,445.011,-5.220,4.620,-56.960
838,45137.916000,-28.444,-9.179,253.980,-225.610,-111.957,445.864,-6.220,-10.380,-46.960
839,45137.936000,-29.425,2.040,256.000,-227.288,-111.089,443.932,-1.220,5.620,-39.960
840,45137.958000,-33.349,7.139,254.990,-225.637,-111.955,446.859,18.780,-1.380,-17.960
841,45137.978000,-28.444,0.000,252.970,-229.019,-111.087,443.986,13.780,8.620,-10.960
842,45138.3000,-31.387,8.159,257.010,-228.182,-110.215,444.956,1.780,0.620,5.040
843,45138.33000,-31.387,5.100,250.951,-228.152,-111.958,443.957,-4.220,-3.380,7.040
844,45138.66000,-30.406,8.159,254.990,-230.774,-112.822,445.030,17.780,9.620,3.040
845,45138.68000,-32.368,5.100,253.980,-233.397,-112.815,446.106,0.780,0.620,2.040
846,45138.87000,-31.387,5.100,252.970,-224.742,-113.699,445.832,-8.220,-3.380,2.040
847,45138.103000,-31.387,7.139,254.990,-231.641,-111.950,445.060,-4.220,-1.380,1.040
848,45138.121000,-32.368,5.100,251.961,-229.966,-111.077,446.997,7.780,3.620,2.040
849,45138.141000,-30.406,3.060,256.000,-223.010,-114.572,445.775,5.780,-2.380,0.040
850,45138.158000,-30.406,-3.060,254.990,-231.671,-110.207,446.059,-1.220,0.620,-15.960
851,45138.186000,-32.368,-1.020,253.980,-229.967,-110.207,446.999,5.780,-1.380,-20.960
852,45138.203000,-27.464,-2.040,257.010,-223.879,-111.960,445.810,7.780,0.620,-22.960
853,45138.227000,-29.425,-2.040,253.980,-228.179,-111.956,444.951,5.780,0.620,-13.960
854,45138.255000,-25.502,-5.100,258.020,-230.721,-111.957,443.044,-2.220,1.620,-2.960
855,45138.275000,-30.406,-8.159,256.000,-227.282,-114.571,443.922,2.780,-0.380,7.040
856,45138.290000,-27.464,-12.239,258.020,-231.639,-112.820,445.057,-5.220,4.620,2.040
857,45138.310000,-28.444,-11.219,257.010,-229.100,-111.079,446.970,2.780,-1.380,-6.960
858,45138.325000,-27.464,-16.319,254.990,-228.989,-112.830,442.987,4.780,1.620,-19.960
859,45138.357000,-27.464,-14.279,260.039,-223.799,-111.098,442.829,10.780,-0.380,-30.960
860,45138.360000,-23.540,-22.438,256.000,-230.670,-110.221,441.060,4.780,0.620,-27.960
861,45138.377000,-27.464,-10.199,257.010,-229.746,-112.839,439.036,3.780,1.620,-18.960
862,45138.405000,-24.521,-15.299,256.000,-230.641,-111.094,440.063,-13.220,8.620,-8.960
863,45138.429000,-30.406,-5.100,254.990,-228.855,-111.972,438.017,2.780,-5.380,-3.960
864,45138.447000,-25.502,-9.179,258.020,-231.478,-111.966,439.093,-8.220,-2.380,-5.960
865,45138.470000,-30.406,-9.179,256.000,-233.104,-109.362,435.177,5.780,7.620,-6.960
866,45138.485000,-25.502,-7.139,258.020,-229.723,-110.230,438.049,2.780,-3.380,6.040
867,45138.502000,-27.464,-9.179,256.000,-231.319,-109.370,433.134,0.780,-0.380,16.040
868,45138.522000,-26.483,-11.219,254.990,-228.829,-111.105,437.025,0.780,5.620,20.040
869,45138.545000,-27.464,2.040,258.020,-233.888,-109.369,432.221,-16.220,-5.380,35.040
870,45138.575000,-27.464,-3.060,251.961,-227.962,-111.976,436.995,-11.220,-6.380,50.040
871,45138.590000,-27.464,5.100,256.000,-223.474,-111.129,430.895,-1.220,12.620,61.040
872,45138.612000,-26.483,0.000,256.000,-227.778,-108.513,430.044,-8.220,0.620,78.040
873,45138.627000,-32.368,7.139,253.980,-233.861,-109.371,431.226,-28.220,2.620,86.040
874,45138.645000,-27.464,4.080,254.990,-227.701,-105.910,427.069,-10.220,-2.380,116.040
875,45138.669000,-33.349,9.179,254.990,-231.211,-109.381,429.156,-8.220,8.620,95.040
876,45138.680000,-33.349,12.239,257.010,-231.916,-107.654,423.221,-4.220,0.620,78.040
877,45138.697000,-35.310,9.179,252.970,-230.161,-105.919,422.178,-19.220,-0.380,29.040
878,45138.722000,-31.387,3.060,254.990,-231.031,-103.306,422.213,16.780,-0.380,30.040
879,45138.742000,-33.349,6.120,260.039,-230.156,-109.400,422.167,-3.220,1.620,29.040
880,45138.762000,-33.349,4.080,253.980,-233.463,-104.188,416.325,-27.220,-9.380,61.040
881,45138.785000,-34.330,11.219,256.000,-231.728,-106.802,416.263,-11.220,-4.380,70.040
882,45138.810000,-38.253,15.299,252.970,-236.032,-104.187,415.412,6.780,1.620,54.040
883,45138.830000,-41.195,26.518,253.980,-234.352,-105.925,417.341,-28.220,7.620,14.040
884,45138.850000,-40.215,29.578,253.980,-239.360,-102.453,410.553,-6.220,7.620,-5.960
885,45138.870000,-39.234,24.478,250.951,-231.602,-100.723,411.308,9.780,12.620,22.040
886,45138.892000,-33.349,19.378,256.000,-241.985,-101.576,411.631,-6.220,11.620,83.040
887,45138.910000,-34.330,24.478,254.990,-235.095,-98.103,412.419,-24.220,13.620,109.040
888,45138.935000,-37.272,33.657,252.970,-238.498,-100.714,410.531,-28.220,4.620,101.040
889,45138.950000,-39.234,39.777,256.000,-241.881,-98.976,407.661,-3.220,19.620,41.040
890,45138.975000,-40.215,41.817,251.961,-246.205,-100.709,407.792,-4.220,8.620,-4.960
891,45138.992000,-37.272,46.916,256.000,-243.587,-97.235,406.726,-4.220,4.620,-18.960
892,45139.7000,-35.310,41.817,251.961,-243.503,-98.983,403.738,-1.220,3.620,-0.960
893,45139.22000,-35.310,38.757,252.970,-240.990,-98.109,406.642,3.780,5.620,13.040
894,45139.72000,-35.310,31.618,257.010,-240.965,-96.371,405.653,11.780,5.620,2.040
895,45139.80000,-29.425,3.060,254.990,-242.717,-99.847,406.691,8.780,-6.380,4.040
896,45139.95000,-29.425,4.080,258.020,-242.693,-98.109,405.702,2.780,15.620,-10.960
897,45139.117000,-34.330,9.179,253.980,-243.530,-98.981,404.732,-9.220,-16.380,0.040
898,45139.132000,-30.406,5.100,253.980,-240.096,-98.984,405.618,-4.220,-16.380,-11.960
899,45139.152000,-32.368,7.139,257.010,-242.722,-97.236,406.699,31.780,13.620,-7.960
900,45139.175000,-32.368,5.100,253.980,-239.229,-99.855,405.588,2.780,0.620,-3.960
901,45139.205000,-31.387,7.139,256.000,-245.262,-98.107,404.789,-19.220,-6.380,-2.960
902,45139.215000,-32.368,6.120,252.970,-241.015,-98.977,407.634,5.780,3.620,-1.960
903,45139.235000,-31.387,8.159,257.010,-243.617,-95.491,407.726,13.780,5.620,-4.960
904,45139.252000,-33.349,6.120,254.990,-240.987,-99.850,406.637,3.780,1.620,-4.960
905,45139.277000,-33.349,6.120,251.961,-241.825,-99.851,405.670,-9.220,-3.380,-5.960
906,45139.297000,-39.234,29.578,257.010,-240.094,-99.854,405.615,-4.220,3.620,-10.960
907,45139.318000,-42.176,35.697,250.951,-242.773,-98.972,408.683,-1.220,-8.380,-9.960
908,45139.332000,-36.291,30.598,254.990,-244.508,-96.358,408.745,9.780,0.620,-0.960
909,45139.342000,-42.176,34.677,254.990,-244.475,-99.842,407.740,20.780,8.620,-6.960
910,45139.372000,-38.253,28.558,251.961,-238.469,-101.587,409.534,0.780,-10.380,-16.960
911,45139.392000,-41.195,39.777,257.010,-243.684,-104.187,410.683,-18.220,-4.380,-45.960
912,45139.413000,-41.195,32.637,249.941,-235.033,-102.460,410.417,21.780,-5.380,-59.960
913,45139.437000,-38.253,33.657,258.020,-240.194,-105.065,409.578,7.780,11.620,-71.960
914,45139.472000,-40.215,26.518,251.961,-231.598,-103.334,411.301,-14.220,-9.380,-71.960
915,45139.482000,-35.310,20.398,250.951,-234.138,-104.205,409.391,22.780,-5.380,-78.960
916,45139.506000,-31.387,16.319,257.010,-233.299,-105.074,410.355,23.780,-3.380,-84.960
917,45139.518000,-33.349,13.259,256.000,-232.535,-109.417,414.293,11.780,1.620,-82.960
918,45139.538000,-33.349,12.239,253.980,-237.708,-104.189,413.477,-4.220,-12.380,-87.960
919,45139.558000,-33.349,9.179,251.961,-233.430,-107.672,415.320,3.780,-4.380,-94.960
920,45139.578000,-31.387,12.239,256.000,-233.403,-107.675,414.325,16.780,-0.380,-75.960
921,45139.596000,-28.444,6.120,254.990,-230.048,-108.540,418.192,1.780,-8.380,-48.960
922,45139.621000,-30.406,7.139,250.951,-230.100,-110.276,420.176,-11.220,-1.380,-49.960
923,45139.638000,-28.444,7.139,254.990,-225.803,-108.539,421.040,11.780,-3.380,-41.960
924,45139.658000,-31.387,7.139,254.990,-226.668,-108.538,421.067,6.780,0.620,-56.960
925,45139.678000,-34.330,19.378,254.990,-230.183,-109.398,423.162,-15.220,-2.380,-74.960
926,45139.701000,-29.425,7.139,252.970,-226.694,-109.406,422.059,4.780,-9.380,-62.960
927,45139.721000,-31.387,1.020,256.000,-230.264,-109.390,426.145,22.780,-4.380,-37.960
928,45139.751000,-30.406,8.159,257.010,-228.532,-110.263,426.088,-20.220,11.620,-47.960
929,45139.771000,-29.425,-3.060,251.961,-230.367,-112.861,430.113,-10.220,-18.380,-52.960
930,45139.782000,-30.406,1.020,257.010,-226.771,-112.009,425.035,38.780,12.620,-95.960
931,45139.812000,-27.464,-7.139,254.990,-229.503,-111.992,430.088,13.780,-9.380,-117.960
932,45139.822000,-26.483,-6.120,254.990,-220.879,-110.263,430.817,9.780,-1.380,-112.960
933,45139.845000,-29.425,3.060,256.000,-230.473,-114.591,434.085,3.780,3.620,-112.960
934,45139.852000,-28.444,-3.060,251.961,-228.659,-115.472,431.045,8.780,-6.380,-110.960
935,45139.877000,-26.483,-4.080,256.000,-229.684,-117.196,437.034,7.780,2.620,-109.960
936,45139.897000,-26.483,-4.080,256.000,-225.355,-118.943,436.893,19.780,-3.380,-80.960
937,45139.917000,-23.540,-13.259,258.020,-230.548,-118.065,437.059,2.780,-2.380,-77.960
938,45139.937000,-26.483,-7.139,254.990,-223.681,-117.200,438.833,9.780,-5.380,-57.960
939,45139.957000,-23.540,-6.120,258.020,-227.927,-117.201,435.985,8.780,4.620,-51.960
940,45139.980000,-28.444,-4.080,254.990,-224.547,-117.199,438.860,6.780,-1.380,-26.960
941,45140.5000,-22.559,-11.219,256.000,-226.331,-117.191,440.903,-9.220,0.620,-8.960
942,45140.40000,-28.444,-5.100,256.000,-225.465,-118.063,440.874,6.780,-2.380,28.040
943,45140.55000,-27.464,-12.239,257.010,-224.682,-117.186,443.833,-6.220,0.620,45.040
944,45140.76000,-27.464,-10.199,258.020,-228.091,-116.315,441.955,-8.220,-1.380,47.040
945,45140.93000,-29.425,-13.259,254.990,-223.761,-118.063,441.814,-6.220,0.620,44.040
946,45140.101000,-24.521,-13.259,260.039,-225.470,-114.581,440.884,-6.220,2.620,31.040
947,45140.126000,-28.444,-12.239,259.030,-222.060,-116.322,442.759,-11.220,-0.380,22.040
948,45140.136000,-27.464,-15.299,253.980,-228.929,-116.316,440.987,0.780,3.620,28.040
949,45140.166000,-26.483,-13.259,259.030,-222.927,-115.451,442.789,-6.220,-2.380,11.040
950,45140.191000,-29.425,-11.219,254.990,-229.740,-116.320,439.026,-1.220,-3.380,-0.960
951,45140.213000,-27.464,2.040,257.010,-224.602,-116.323,440.852,-16.220,10.620,-10.960
952,45140.226000,-33.349,8.159,251.961,-229.039,-115.436,444.968,9.780,-11.380,7.040
953,45140.243000,-30.406,4.080,253.980,-226.306,-116.323,439.911,9.780,11.620,-1.960
954,45140.266000,-31.387,9.179,257.010,-228.116,-117.183,442.947,2.780,-4.380,3.040
955,45140.288000,-31.387,4.080,252.970,-227.335,-115.436,445.908,-5.220,1.620,1.040
956,45140.308000,-31.387,8.159,257.010,-229.853,-113.699,443.011,7.780,4.620,4.040
957,45140.345000,-33.349,5.100,252.970,-223.798,-111.968,442.827,8.780,4.620,5.040
958,45140.360000,-30.406,4.080,257.010,-222.896,-118.064,441.787,9.780,-2.380,16.040
959,45140.362000,-25.502,-10.199,257.010,-222.897,-117.194,441.789,-8.220,3.620,34.040
960,45140.393000,-27.464,-8.159,254.990,-229.794,-116.315,441.014,-3.220,0.620,51.040
961,45140.407000,-26.483,-8.159,257.010,-224.681,-118.056,443.830,-5.220,3.620,51.040
962,45140.430000,-29.425,-12.239,256.000,-227.257,-113.703,442.930,-1.220,0.620,47.040
963,45140.450000,-26.483,-10.199,258.020,-228.065,-115.447,440.963,-9.220,2.620,33.040
964,45140.470000,-29.425,-6.120,254.990,-227.253,-116.314,442.922,-5.220,1.620,17.040
965,45140.499000,-29.425,-3.060,253.980,-230.605,-116.319,439.053,1.780,0.620,14.040
966,45140.517000,-28.444,1.020,257.010,-228.038,-115.450,439.968,3.780,-0.380,20.040
967,45140.540000,-32.368,-1.020,253.980,-230.581,-114.581,438.063,-4.220,2.620,21.040
968,45140.547000,-30.406,4.080,258.020,-227.988,-112.844,437.987,6.780,0.620,29.040
969,45140.567000,-27.464,-8.159,254.990,-228.903,-115.449,439.995,-10.220,3.620,28.040
970,45140.587000,-32.368,2.040,253.980,-227.148,-113.713,438.952,10.780,-7.380,30.040
971,45140.605000,-28.444,-8.159,258.020,-227.094,-113.719,436.963,-12.220,8.620,6.040
972,45140.620000,-32.368,-5.100,251.961,-228.855,-111.972,438.017,0.780,-4.380,8.040
973,45140.635000,-26.483,-5.100,257.010,-230.505,-111.107,435.090,-15.220,11.620,-3.960
974,45140.662000,-33.349,2.040,252.970,-228.748,-111.113,434.042,10.780,-3.380,1.040
975,45140.697000,-28.444,-1.020,254.990,-227.013,-113.726,433.980,-2.220,3.620,-4.960
976,45140.717000,-28.444,3.060,256.000,-228.776,-110.240,435.039,11.780,-5.380,16.040
977,45140.752000,-28.444,-1.020,252.970,-226.958,-113.732,431.991,-11.220,8.620,22.040
978,45140.762000,-29.425,3.060,254.990,-227.798,-112.862,431.026,-6.220,-0.380,21.040
979,45140.783000,-33.349,5.100,253.980,-226.066,-113.736,430.969,-6.220,0.620,0.040
980,45140.786000,-33.349,10.199,253.980,-230.417,-115.467,432.094,3.780,-0.380,-9.960
981,45140.818000,-29.425,4.080,253.980,-229.474,-112.865,429.091,5.780,1.620,-22.960
982,45140.833000,-34.330,9.179,253.980,-229.477,-111.124,429.096,3.780,-1.380,-35.960
983,45140.856000,-29.425,9.179,257.010,-229.447,-112.867,428.097,4.780,-1.380,-27.960
984,45140.876000,-34.330,13.259,254.990,-230.226,-116.355,425.130,6.780,4.620,-23.960
985,45140.890000,-31.387,12.239,253.980,-225.904,-112.881,425.005,4.780,-7.380,-8.960
986,45140.912000,-28.444,5.100,253.980,-231.097,-112.872,425.168,2.780,9.620,5.040
987,45140.929000,-33.349,7.139,253.980,-225.039,-112.882,424.978,-0.220,-6.380,20.040
988,45140.945000,-28.444,8.159,257.010,-231.045,-111.137,423.184,-15.220,5.620,21.040
989,45140.959000,-34.330,12.239,251.961,-227.587,-109.402,423.081,0.780,-8.380,31.040
990,45140.987000,-32.368,14.279,256.000,-227.527,-112.888,421.081,-2.220,10.620,19.040
991,45141.12000,-35.310,15.299,252.970,-232.696,-110.272,420.257,10.780,1.620,30.040
992,45141.33000,-30.406,1.020,253.980,-230.093,-114.627,420.163,2.780,-0.380,56.040
993,45141.57000,-29.425,5.100,257.010,-231.751,-109.410,417.249,-16.220,0.620,66.040
994,45141.75000,-31.387,7.139,250.951,-230.938,-110.277,419.209,-11.220,-6.380,81.040
995,45141.97000,-30.406,11.219,256.000,-233.399,-110.286,414.318,-8.220,3.620,71.040
996,45141.112000,-34.330,9.179,252.970,-230.046,-110.281,418.187,-8.220,-0.380,62.040
997,45141.140000,-34.330,12.239,254.990,-231.752,-108.540,417.252,-16.220,2.620,48.040
998,45141.162000,-29.425,6.120,256.000,-233.397,-111.156,414.315,-0.220,-1.380,56.040
999,45141.182000,-33.349,6.120,253.980,-233.400,-109.415,414.320,4.780,6.620,55.040
1000,45141.200000,-29.425,12.239,258.020,-235.918,-107.678,411.423,-21.220,3.620,49.040
1001,45141.217000,-35.310,15.299,252.970,-236.868,-105.058,414.442,-2.220,-0.380,45.040
1002,45141.237000,-32.368,13.259,253.980,-239.406,-107.670,412.526,-6.220,0.620,37.040
1003,45141.257000,-36.291,20.398,254.990,-233.377,-106.807,413.333,2.780,13.620,34.040
1004,45141.272000,-35.310,18.359,251.961,-236.843,-104.190,413.450,-8.220,-7.380,35.040
1005,45141.292000,-34.330,23.458,257.010,-232.483,-107.681,412.309,-14.220,9.620,28.040
1006,45141.315000,-36.291,19.378,252.970,-239.389,-101.580,411.550,10.780,2.620,33.040
1007,45141.335000,-36.291,21.418,253.980,-237.680,-105.062,412.480,-0.220,3.620,21.040
1008,45141.355000,-36.291,18.359,254.990,-239.440,-103.316,413.534,0.780,-2.380,18.040
1009,45141.384000,-36.291,18.359,251.961,-234.140,-103.335,409.393,3.780,2.620,2.040
1010,45141.405000,-33.349,21.418,258.020,-238.491,-105.066,410.518,1.780,2.620,-3.960
1011,45141.425000,-34.330,20.398,252.970,-235.029,-105.071,410.410,-3.220,0.620,-0.960
1012,45141.445000,-33.349,11.219,253.980,-234.188,-106.811,411.372,10.780,-2.380,1.040
1013,45141.462000,-29.425,3.060,257.010,-231.649,-105.069,413.284,4.780,10.620,-4.960
1014,45141.485000,-35.310,8.159,256.000,-235.081,-106.807,412.393,-6.220,6.620,-4.960
1015,45141.498000,-28.444,5.100,256.000,-235.004,-104.204,409.418,-19.220,-11.380,-1.960
1016,45141.519000,-34.330,8.159,253.980,-233.350,-106.810,412.339,10.780,7.620,-4.960
1017,45141.542000,-30.406,5.100,257.010,-235.946,-106.805,412.420,7.780,-1.380,0.040
1018,45141.559000,-32.368,6.120,257.010,-237.650,-106.805,411.480,-10.220,-2.380,-1.960
1019,45141.582000,-32.368,5.100,252.970,-236.731,-105.941,409.467,-6.220,0.620,-5.960
1020,45141.610000,-30.406,8.159,257.010,-239.352,-107.675,410.537,7.780,5.620,-5.960
1021,45141.612000,-37.272,19.378,254.990,-238.518,-105.063,411.512,-13.220,3.620,1.040
1022,45141.637000,-36.291,28.558,252.970,-236.897,-104.185,415.439,-13.220,-13.380,9.040
1023,45141.660000,-35.310,17.339,250.951,-239.383,-105.062,411.540,14.780,7.620,5.040
1024,45141.685000,-36.291,16.319,253.980,-233.316,-111.164,411.332,23.780,5.620,7.040
1025,45141.704000,-31.387,16.319,258.020,-230.732,-103.335,411.274,-23.220,-6.380,10.040
1026,45141.722000,-36.291,22.438,252.970,-231.566,-105.947,410.298,-20.220,-4.380,8.040
1027,45141.742000,-35.310,28.558,253.980,-238.595,-107.666,414.488,-4.220,2.620,-7.960
1028,45141.757000,-37.272,29.578,252.970,-232.539,-106.806,414.301,18.780,-0.380,-14.960
1029,45141.782000,-39.234,31.618,252.970,-235.139,-104.191,414.390,-10.220,-3.380,-18.960
1030,45141.797000,-33.349,21.418,253.980,-230.810,-105.938,414.249,-0.220,-3.380,-4.960
1031,45141.837000,-36.291,21.418,254.990,-236.160,-108.525,420.371,7.780,5.620,-3.960
1032,45141.852000,-34.330,15.299,254.990,-231.725,-108.543,416.257,8.780,-7.380,-4.960
1033,45141.867000,-34.330,13.259,253.980,-231.702,-105.934,415.271,-0.220,-6.380,-28.960
1034,45141.890000,-34.330,14.279,252.970,-230.023,-107.673,417.200,2.780,2.620,-55.960
1035,45141.900000,-31.387,13.259,257.010,-231.859,-109.400,421.227,5.780,-0.380,-64.960
1036,45141.925000,-33.349,6.120,252.970,-230.077,-107.667,419.189,0.780,2.620,-59.960
1037,45141.947000,-29.425,6.120,254.990,-226.797,-112.877,426.026,-2.220,-0.380,-48.960
1038,45141.965000,-29.425,4.080,254.990,-227.584,-111.142,423.075,-7.220,0.620,-37.960
1039,45141.980000,-32.368,7.139,256.000,-227.559,-109.404,422.086,-2.220,3.620,-34.960
1040,45142.2000,-29.425,2.040,256.000,-224.989,-110.276,422.997,-3.220,-3.380,-40.960
1041,45142.19000,-33.349,5.100,251.961,-228.506,-109.395,425.097,12.780,1.620,-52.960
1042,45142.40000,-28.444,1.020,257.010,-228.588,-109.387,428.080,5.780,-0.380,-52.960
1043,45142.68000,-30.406,-5.100,256.000,-225.176,-111.999,429.953,6.780,1.620,-44.960
1044,45142.81000,-30.406,3.060,257.010,-232.914,-109.380,428.216,-9.220,2.620,-40.960
1045,45142.103000,-29.425,4.080,256.000,-229.503,-111.992,430.088,-1.220,-6.380,-43.960
1046,45142.133000,-35.310,7.139,252.970,-229.447,-112.867,428.097,-0.220,1.620,-64.960
1047,45142.148000,-26.483,-1.020,257.010,-232.959,-115.468,430.186,27.780,-7.380,-64.960
1048,45142.183000,-30.406,0.000,258.020,-228.663,-112.861,431.053,-9.220,6.620,-77.960
1049,45142.198000,-31.387,5.100,256.000,-226.956,-115.472,431.985,-2.220,-5.380,-73.960
1050,45142.208000,-30.406,5.100,254.990,-227.851,-113.728,433.012,0.780,-0.380,-70.960
1051,45142.226000,-30.406,4.080,254.990,-225.255,-113.732,432.931,20.780,9.620,-70.960
1052,45142.253000,-26.483,0.000,259.030,-230.525,-115.456,436.072,-7.220,-1.380,-65.960
1053,45142.268000,-32.368,2.040,253.980,-224.441,-115.469,434.887,3.780,3.620,-56.960
1054,45142.286000,-28.444,4.080,256.000,-227.060,-118.073,435.956,2.780,-0.380,-57.960
1055,45142.308000,-32.368,4.080,253.980,-227.145,-115.454,438.947,-3.220,-1.380,-64.960
1056,45142.331000,-30.406,0.000,253.980,-223.678,-118.941,438.828,12.780,0.620,-65.960
1057,45142.348000,-29.425,-1.020,258.020,-228.014,-113.712,438.979,13.780,0.620,-57.960
1058,45142.366000,-31.387,-3.060,250.951,-225.303,-117.208,434.909,2.780,-3.380,-58.960
1059,45142.397000,-27.464,-4.080,258.020,-228.852,-113.713,438.012,1.780,1.620,-52.960
1060,45142.410000,-30.406,-9.179,254.990,-222.762,-117.207,436.817,11.780,4.620,-45.960
1061,45142.437000,-28.444,-12.239,254.990,-228.899,-118.060,439.988,1.780,-2.380,-39.960
1062,45142.452000,-28.444,-7.139,259.030,-222.843,-117.199,439.800,2.780,0.620,-44.960
1063,45142.470000,-30.406,-8.159,251.961,-230.710,-118.919,443.023,1.780,-3.380,-53.960
1064,45142.492000,-25.502,-13.259,258.020,-225.440,-116.325,439.884,12.780,0.620,-37.960
1065,45142.507000,-27.464,-18.359,256.000,-231.519,-119.793,441.058,1.780,-0.380,-26.960
1066,45142.529000,-24.521,-16.319,256.000,-228.116,-117.183,442.947,5.780,-3.380,-15.960
1067,45142.552000,-26.483,-2.040,259.030,-230.734,-120.657,444.012,-1.220,1.620,-13.960
1068,45142.572000,-37.272,11.219,252.970,-227.138,-119.806,438.934,-39.220,9.620,-12.960
1069,45142.607000,-28.444,2.040,254.990,-226.300,-119.804,439.901,13.780,-7.380,11.040
1070,45142.627000,-35.310,8.159,256.000,-226.387,-116.315,442.895,0.780,15.620,2.040
1071,45142.642000,-29.425,4.080,252.970,-227.138,-119.806,438.934,-14.220,-10.380,9.040
1072,45142.649000,-32.368,8.159,256.000,-224.622,-120.672,441.833,-3.220,2.620,-2.960
1073,45142.675000,-33.349,4.080,253.980,-224.514,-120.683,437.855,7.780,4.620,3.040
1074,45142.684000,-33.349,4.080,253.980,-228.925,-118.927,440.980,-7.220,0.620,2.040
1075,45142.710000,-31.387,8.159,256.000,-225.490,-118.930,441.866,15.780,1.620,5.040
1076,45142.737000,-30.406,-2.040,252.970,-229.760,-120.669,440.007,-2.220,0.620,13.040
1077,45142.757000,-26.483,-4.080,257.010,-227.194,-118.930,440.925,-4.220,1.620,24.040
1078,45142.775000,-27.464,-7.139,254.990,-228.062,-117.188,440.958,-1.220,1.620,26.040
1079,45142.797000,-30.406,-6.120,254.990,-226.250,-117.199,437.920,-1.220,0.620,26.040
1080,45142.820000,-28.444,-3.060,257.010,-228.084,-120.667,441.942,-0.220,0.620,19.040
1081,45142.832000,-30.406,-6.120,253.980,-222.840,-118.940,439.795,0.780,0.620,15.040
1082,45142.852000,-25.502,-9.179,259.030,-223.785,-119.801,442.803,-5.220,4.620,14.040
1083,45142.872000,-28.444,-11.219,254.990,-224.575,-116.326,439.857,-2.220,2.620,10.040
1084,45142.895000,-26.483,-14.279,256.000,-221.973,-119.811,439.765,3.780,-0.380,11.040
1085,45142.912000,-27.464,-5.100,259.030,-228.878,-114.581,439.004,-2.220,4.620,1.040
1086,45142.930000,-28.444,-7.139,250.951,-230.494,-118.070,435.070,-1.220,-0.380,19.040
1087,45142.952000,-25.502,-9.179,258.020,-228.032,-118.931,439.958,-8.220,2.620,38.040
1088,45142.982000,-28.444,-8.159,253.980,-228.763,-118.073,435.015,-6.220,2.620,56.040
1089,45143.12000,-30.406,-3.060,256.000,-228.820,-116.327,437.009,-13.220,3.620,50.040
1090,45143.27000,-28.444,-3.060,257.010,-227.060,-118.073,435.956,-7.220,4.620,37.040
1091,45143.42000,-31.387,2.040,256.000,-229.604,-116.333,434.053,-2.220,0.620,27.040
1092,45143.60000,-26.483,0.000,257.010,-225.275,-118.081,433.912,-14.220,4.620,32.040
1093,45143.77000,-32.368,8.159,254.990,-227.769,-113.735,430.029,1.780,-7.380,62.040
1094,45143.87000,-28.444,6.120,254.990,-224.357,-117.217,431.899,-7.220,7.620,62.040
1095,45143.114000,-30.406,11.219,259.030,-224.304,-116.352,429.913,-10.220,6.620,63.040
1096,45143.139000,-31.387,6.120,252.970,-225.983,-114.614,427.983,-10.220,-0.380,76.040
1097,45143.159000,-29.425,7.139,257.010,-223.440,-115.483,429.888,-12.220,8.620,78.040
1098,45143.182000,-34.330,8.159,253.980,-226.851,-112.872,428.015,-16.220,-5.380,96.040
1099,45143.190000,-30.406,12.239,254.990,-220.791,-114.622,427.820,-8.220,5.620,105.040
1100,45143.207000,-33.349,14.279,256.000,-225.964,-109.394,427.004,-1.220,6.620,119.040
1101,45143.227000,-30.406,7.139,254.990,-230.286,-112.869,427.129,-11.220,-0.380,122.040
1102,45143.252000,-31.387,12.239,258.020,-228.479,-109.398,424.102,-17.220,-2.380,117.040
1103,45143.277000,-36.291,12.239,251.961,-227.664,-112.005,426.056,-12.220,3.620,101.040
1104,45143.297000,-35.310,15.299,256.000,-228.531,-111.133,426.086,-11.220,6.620,93.040
1105,45143.317000,-34.330,8.159,254.990,-227.589,-107.661,423.086,-24.220,1.620,85.040
1106,45143.358000,-35.310,13.259,252.970,-231.102,-109.391,425.178,-17.220,2.620,72.040
1107,45143.373000,-32.368,21.418,256.000,-228.451,-110.271,423.105,-7.220,-5.380,64.040
1108,45143.388000,-38.253,19.378,254.990,-230.137,-104.181,421.189,2.780,2.620,56.040
1109,45143.401000,-34.330,13.259,254.990,-228.429,-106.792,422.121,2.780,0.620,60.040
1110,45143.426000,-29.425,4.080,257.010,-234.434,-105.917,420.324,-7.220,-1.380,72.040
1111,45143.443000,-30.406,0.000,253.980,-229.237,-108.536,420.154,-9.220,0.620,75.040
1112,45143.466000,-27.464,5.100,257.010,-234.355,-104.184,417.346,-13.220,3.620,76.040
1113,45143.478000,-36.291,11.219,253.980,-234.379,-105.922,418.336,-19.220,-0.380,64.040
1114,45143.503000,-33.349,16.319,256.000,-232.679,-104.182,419.281,-8.220,-3.380,50.040
1115,45143.522000,-33.349,13.259,252.970,-236.116,-102.438,418.400,6.780,5.620,65.040
1116,45143.544000,-30.406,7.139,254.990,-236.137,-105.917,419.384,-3.220,2.620,73.040
1117,45143.553000,-32.368,14.279,257.010,-236.953,-103.310,417.430,-11.220,-6.380,68.040
1118,45143.578000,-35.310,10.199,250.951,-236.140,-104.176,419.389,-7.220,-5.380,48.040
1119,45143.598000,-35.310,18.359,257.010,-234.302,-103.319,415.360,9.780,4.620,21.040
1120,45143.618000,-34.330,11.219,252.970,-235.195,-103.315,416.382,6.780,-2.380,11.040
1121,45143.636000,-33.349,16.319,254.990,-235.250,-102.440,418.373,-7.220,4.620,7.040
1122,45143.656000,-31.387,18.359,256.000,-234.328,-104.187,416.352,-1.220,-2.380,15.040
1123,45143.681000,-35.310,16.319,253.980,-229.998,-105.934,416.211,-2.220,4.620,7.040
1124,45143.698000,-31.387,16.319,257.010,-233.406,-105.934,414.331,6.780,2.620,4.040
1125,45143.728000,-37.272,13.259,252.970,-232.513,-105.938,413.309,-3.220,1.620,-1.960
1126,45143.746000,-31.387,14.279,254.990,-231.628,-101.590,412.300,-7.220,2.620,-2.960
1127,45143.763000,-36.291,16.319,253.980,-229.003,-102.468,411.222,5.780,0.620,2.040
1128,45143.783000,-32.368,7.139,251.961,-230.814,-103.327,414.257,6.780,5.620,0.040
1129,45143.801000,-30.406,8.159,258.020,-238.659,-101.569,416.495,9.780,4.620,0.040
1130,45143.823000,-31.387,6.120,253.980,-234.307,-100.708,415.368,-6.220,-3.380,2.040
1131,45143.841000,-31.387,6.120,256.000,-236.900,-102.445,415.444,-5.220,-0.380,0.040
1132,45143.863000,-31.387,6.120,256.000,-238.599,-105.055,414.496,8.780,4.620,1.040
1133,45143.893000,-32.368,6.120,253.980,-237.732,-105.927,414.466,-4.220,-0.380,-0.960
1134,45143.903000,-31.387,7.139,258.020,-235.116,-101.582,413.403,-6.220,-3.380,1.040
1135,45143.926000,-32.368,5.100,250.951,-236.927,-102.442,416.438,-2.220,0.620,-0.960
1136,45143.943000,-30.406,7.139,257.010,-234.331,-102.446,416.357,3.780,1.620,-0.960
1137,45143.966000,-32.368,5.100,254.990,-235.191,-105.926,416.374,-5.220,-2.380,1.040
1138,45143.984000,-33.349,5.100,252.970,-232.570,-104.192,415.303,-6.220,-0.380,0.040
1139,45144.6000,-30.406,7.139,256.000,-233.464,-103.318,416.327,2.780,1.620,0.040
1140,45144.33000,-32.368,6.120,253.980,-232.569,-105.063,415.301,-0.220,2.620,-0.960
1141,45144.53000,-30.406,8.159,258.020,-234.245,-105.065,413.366,-3.220,0.620,-1.960
1142,45144.68000,-36.291,16.319,254.990,-238.660,-100.698,416.498,-10.220,1.620,-14.960
1143,45144.98000,-36.291,18.359,251.961,-231.652,-103.328,413.290,13.780,-15.380,-14.960
1144,45144.106000,-32.368,14.279,256.000,-238.659,-101.569,416.495,9.780,14.620,-11.960
1145,45144.131000,-36.291,15.299,256.000,-232.544,-103.324,414.311,3.780,-3.380,0.040
1146,45144.143000,-31.387,15.299,256.000,-236.032,-104.187,415.412,-17.220,-4.380,-14.960
1147,45144.161000,-36.291,19.378,252.970,-233.464,-103.318,416.327,-3.220,0.620,-23.960
1148,45144.188000,-33.349,21.418,256.000,-230.814,-103.327,414.257,11.780,1.620,-25.960
1149,45144.213000,-34.330,23.458,257.010,-231.679,-103.326,414.284,5.780,-2.380,-12.960
1150,45144.236000,-37.272,21.418,252.970,-232.647,-106.795,418.279,-7.220,-3.380,-7.960
1151,45144.248000,-34.330,23.458,257.010,-233.494,-101.575,417.327,3.780,2.620,-4.960
1152,45144.271000,-35.310,18.359,252.970,-230.862,-106.803,416.236,13.780,0.620,-5.960
1153,45144.293000,-32.368,19.378,254.990,-231.703,-105.064,415.273,3.780,-3.380,-2.960
1154,45144.311000,-34.330,19.378,253.980,-230.924,-102.447,418.237,-3.220,-0.380,-10.960
1155,45144.331000,-33.349,11.219,252.970,-233.541,-105.921,419.303,9.780,-1.380,-13.960
1156,45144.351000,-29.425,11.219,258.020,-228.353,-103.318,419.148,-9.220,8.620,-9.960
1157,45144.386000,-35.310,14.279,253.980,-231.052,-106.785,423.197,-8.220,-13.380,6.040
1158,45144.388000,-31.387,14.279,252.970,-229.351,-105.045,424.142,-23.220,-6.380,2.040
1159,45144.413000,-37.272,24.478,256.000,-231.054,-105.915,423.199,3.780,10.620,-4.960
1160,45144.443000,-33.349,12.239,251.961,-232.942,-109.378,429.210,1.780,-5.380,-16.960
1161,45144.463000,-30.406,14.279,257.010,-232.000,-105.906,426.210,4.780,3.620,-14.960
1162,45144.483000,-30.406,5.100,252.970,-228.565,-106.779,427.093,5.780,-7.380,7.040
1163,45144.498000,-33.349,10.199,257.010,-233.834,-109.374,430.232,-15.220,14.620,-17.960
1164,45144.506000,-36.291,12.239,254.990,-226.024,-105.908,429.003,-5.220,0.620,-19.960
1165,45144.521000,-34.330,7.139,251.961,-229.453,-109.386,428.107,-11.220,-7.380,-55.960
1166,45144.546000,-31.387,10.199,259.030,-228.697,-108.507,432.060,16.780,9.620,-64.960
1167,45144.568000,-31.387,4.080,252.970,-229.511,-106.770,430.104,8.780,-8.380,-59.960
1168,45144.588000,-30.406,6.120,257.010,-233.079,-108.495,434.185,4.780,-1.380,-74.960
1169,45144.623000,-30.406,-3.060,253.980,-224.369,-109.384,431.922,14.780,-0.380,-81.960
1170,45144.628000,-35.310,5.100,254.990,-228.780,-107.629,435.046,9.780,5.620,-87.960
1171,45144.648000,-32.368,6.120,254.990,-227.100,-110.237,436.973,7.780,-9.380,-93.960
1172,45144.673000,-31.387,1.020,250.951,-227.964,-111.106,436.998,15.780,-0.380,-100.960
1173,45144.691000,-28.444,3.060,258.020,-227.151,-111.973,438.957,11.780,0.620,-95.960
1174,45144.711000,-30.406,3.060,253.980,-228.859,-109.361,438.025,-6.220,-3.380,-96.960
1175,45144.751000,-27.464,-6.120,253.980,-223.745,-111.103,440.840,9.780,-6.380,-81.960
1176,45144.766000,-28.444,-5.100,260.039,-230.692,-112.830,442.046,13.780,4.620,-80.960
1177,45144.781000,-28.444,-10.199,256.000,-223.794,-114.579,442.819,7.780,-8.380,-84.960
1178,45144.801000,-28.444,-1.020,257.010,-228.098,-111.963,441.968,2.780,4.620,-101.960
1179,45144.813000,-26.483,-11.219,257.010,-225.497,-114.579,441.879,23.780,-7.380,-91.960
1180,45144.831000,-30.406,-2.040,253.980,-229.770,-114.577,440.025,1.780,2.620,-99.960
1181,45144.846000,-22.559,-18.359,257.010,-227.227,-115.446,441.930,26.780,-8.380,-78.960
1182,45144.871000,-28.444,-18.359,256.000,-226.387,-116.315,442.895,-6.220,5.620,-71.960
1183,45144.891000,-21.579,-20.398,258.020,-229.013,-114.568,443.976,10.780,-5.380,-55.960
1184,45144.911000,-23.540,-24.478,258.020,-228.145,-116.310,443.944,2.780,1.620,-44.960
1185,45144.933000,-19.617,-27.538,257.010,-222.980,-116.316,444.775,3.780,-1.380,-28.960
1186,45144.953000,-26.483,-2.040,259.030,-223.790,-117.190,442.811,-21.220,5.620,-25.960
1187,45144.978000,-36.291,14.279,251.961,-228.144,-117.180,443.941,-31.220,7.620,-19.960
1188,45144.993000,-27.464,1.020,257.010,-224.652,-118.929,442.833,15.780,-11.380,9.040
1189,45145.14000,-34.330,8.159,258.020,-226.356,-118.929,441.893,7.780,20.620,-1.960
1190,45145.36000,-29.425,3.060,252.970,-225.522,-116.317,442.868,-13.220,-12.380,9.040
1191,45145.56000,-32.368,8.159,256.000,-225.468,-116.322,440.879,15.780,13.620,1.040
1192,45145.78000,-32.368,4.080,252.970,-227.197,-117.189,440.930,2.780,-2.380,1.040
1193,45145.103000,-30.406,8.159,257.010,-223.761,-118.063,441.814,-6.220,-0.380,5.040
1194,45145.123000,-32.368,4.080,252.970,-226.466,-118.048,445.873,9.780,2.620,5.040
1195,45145.141000,-23.540,-5.100,257.010,-223.738,-115.454,440.827,3.780,0.620,11.040
1196,45145.156000,-28.444,-6.120,256.000,-230.770,-115.433,445.022,-13.220,4.620,34.040
1197,45145.171000,-26.483,-13.259,254.990,-225.582,-112.830,444.867,1.780,-1.380,60.040
1198,45145.211000,-28.444,-7.139,259.030,-233.370,-112.818,445.111,-11.220,2.620,55.040
1199,45145.221000,-27.464,-12.239,256.000,-220.328,-117.195,442.702,-5.220,0.620,49.040
1200,45145.256000,-28.444,-15.299,258.020,-229.824,-114.572,442.014,0.780,0.620,49.040
1201,45145.263000,-28.444,-17.339,254.990,-226.331,-117.191,440.903,-3.220,0.620,43.040
1202,45145.278000,-31.387,-13.259,254.990,-229.854,-112.828,443.014,-6.220,4.620,36.040
1203,45145.296000,-29.425,-5.100,258.020,-226.310,-113.712,439.919,-10.220,6.620,14.040
1204,45145.313000,-31.387,-4.080,253.980,-228.066,-114.577,440.965,5.780,-0.380,-2.960
1205,45145.341000,-30.406,3.060,258.020,-222.848,-113.718,439.811,8.780,-0.380,-33.960
1206,45145.362000,-31.387,4.080,252.970,-228.879,-113.711,439.006,3.780,1.620,-54.960
1207,45145.384000,-28.444,-2.040,253.980,-224.525,-113.720,437.876,9.780,-0.380,-36.960
1208,45145.404000,-28.444,-2.040,253.980,-228.825,-113.716,437.017,-0.220,-0.380,-22.960
1209,45145.422000,-25.502,-4.080,257.010,-227.068,-112.851,435.971,5.780,-1.380,-18.960
1210,45145.447000,-30.406,-5.100,253.980,-226.167,-118.077,434.934,-5.220,4.620,-23.960
1211,45145.455000,-29.425,2.040,256.000,-224.499,-112.852,436.884,7.780,-1.380,-29.960
1212,45145.478000,-31.387,-2.040,254.990,-224.442,-114.598,434.890,-4.220,3.620,-40.960
1213,45145.499000,-31.387,4.080,253.980,-227.848,-115.468,433.007,-3.220,2.620,-40.960
1214,45145.519000,-29.425,9.179,257.010,-225.336,-113.724,435.914,1.780,1.620,-26.960
1215,45145.542000,-32.368,9.179,253.980,-227.849,-114.598,433.010,2.780,-0.380,2.040
1216,45145.559000,-27.464,12.239,257.010,-222.684,-114.604,433.841,-11.220,4.620,9.040
1217,45145.584000,-34.330,15.299,252.970,-229.445,-114.608,428.092,-8.220,-2.380,31.040
1218,45145.604000,-27.464,7.139,254.990,-226.874,-115.480,429.002,-0.220,10.620,32.040
1219,45145.624000,-31.387,11.219,257.010,-230.334,-116.345,429.108,2.780,-8.380,36.040
1220,45145.644000,-32.368,7.139,250.951,-224.227,-113.749,426.937,-4.220,4.620,33.040
1221,45145.674000,-30.406,11.219,254.990,-231.121,-114.610,426.157,-4.220,4.620,46.040
1222,45145.684000,-32.368,9.179,254.990,-224.202,-112.011,425.948,-20.220,4.620,48.040
1223,45145.702000,-32.368,11.219,253.980,-229.365,-113.745,425.111,-19.220,0.620,65.040
1224,45145.729000,-33.349,15.299,253.980,-229.367,-112.005,425.116,7.780,1.620,72.040
1225,45145.752000,-34.330,13.259,254.990,-226.823,-113.744,427.018,-14.220,3.620,63.040
1226,45145.772000,-34.330,20.398,258.020,-231.095,-113.743,425.165,-15.220,-2.380,62.040
1227,45145.784000,-36.291,14.279,252.970,-228.419,-112.884,422.103,-4.220,0.620,64.040
1228,45145.807000,-31.387,15.299,257.010,-233.673,-108.519,424.267,20.780,-0.380,79.040
1229,45145.817000,-30.406,6.120,254.990,-227.611,-111.140,424.070,-24.220,4.620,67.040
1230,45145.840000,-36.291,15.299,253.980,-231.999,-106.776,426.207,-16.220,-5.380,67.040
1231,45145.859000,-28.444,9.179,257.010,-228.400,-107.665,421.124,3.780,7.620,62.040
1232,45145.884000,-33.349,9.179,256.000,-228.371,-109.408,420.124,-7.220,-3.380,62.040
1233,45145.904000,-33.349,15.299,257.010,-226.668,-108.538,421.067,-29.220,-4.380,72.040
1234,45145.924000,-29.425,4.080,252.970,-228.425,-109.403,422.113,-2.220,13.620,72.040
1235,45145.944000,-32.368,10.199,257.010,-231.888,-108.527,422.224,-12.220,-4.380,76.040
1236,45145.962000,-30.406,10.199,254.990,-230.994,-109.401,421.200,-10.220,0.620,70.040
1237,45145.982000,-36.291,12.239,251.961,-235.273,-105.048,419.360,8.780,6.620,59.040
1238,45146.7000,-31.387,11.219,257.010,-230.076,-108.538,419.187,-12.220,-0.380,46.040
1239,45146.30000,-34.330,11.219,252.970,-230.057,-103.318,418.208,-9.220,-1.380,38.040
1240,45146.50000,-33.349,12.239,252.970,-224.935,-110.282,421.008,5.780,-1.380,34.040
1241,45146.67000,-33.349,12.239,253.980,-232.597,-104.190,416.298,-2.220,3.620,18.040
1242,45146.92000,-36.291,12.239,253.980,-232.754,-107.655,422.254,0.780,-5.380,15.040
1243,45146.113000,-32.368,12.239,254.990,-229.213,-106.798,419.165,-4.220,3.620,-4.960
1244,45146.127000,-33.349,12.239,254.990,-231.779,-108.537,418.246,-5.220,-1.380,-10.960
1245,45146.148000,-33.349,13.259,252.970,-233.624,-105.043,422.289,-0.220,-1.380,-10.960
1246,45146.170000,-34.330,16.319,256.000,-230.888,-107.671,417.227,-8.220,3.620,-10.960
1247,45146.187000,-34.330,14.279,252.970,-233.568,-105.918,420.297,3.780,-2.380,-0.960
1248,45146.212000,-30.406,8.159,257.010,-228.375,-106.797,420.132,16.780,2.620,1.040
1249,45146.229000,-32.368,5.100,254.990,-231.865,-105.919,421.238,-6.220,2.620,-3.960
1250,45146.247000,-30.406,7.139,256.000,-227.454,-107.674,418.113,-7.220,-6.380,-4.960
1251,45146.269000,-32.368,5.100,252.970,-231.781,-107.667,418.249,-2.220,1.620,-2.960
1252,45146.287000,-33.349,5.100,252.970,-232.674,-106.793,419.273,6.780,3.620,0.040
1253,45146.312000,-30.406,7.139,257.010,-230.918,-105.928,418.227,-4.220,0.620,-2.960
1254,45146.334000,-33.349,6.120,251.961,-234.325,-105.927,416.347,-5.220,-4.380,0.040
1255,45146.359000,-29.425,10.199,257.010,-231.781,-107.667,418.249,-7.220,4.620,-1.960
1256,45146.372000,-38.253,23.458,253.980,-229.184,-107.671,418.168,-10.220,6.620,4.040
1257,45146.389000,-33.349,18.359,252.970,-230.050,-107.670,418.195,-11.220,-7.380,18.040
1258,45146.414000,-33.349,20.398,256.000,-234.377,-107.663,418.330,15.780,12.620,26.040
1259,45146.437000,-38.253,24.478,253.980,-231.815,-103.313,419.256,-14.220,2.620,10.040
1260,45146.444000,-34.330,30.598,253.980,-227.508,-107.669,420.102,-12.220,-6.380,-8.960
1261,45146.459000,-35.310,23.458,251.961,-227.541,-104.185,421.107,28.780,2.620,-5.960
1262,45146.490000,-34.330,25.498,256.000,-230.972,-105.923,420.216,5.780,15.620,-7.960
1263,45146.510000,-35.310,26.518,256.000,-230.998,-106.790,421.208,-16.220,-5.380,1.040
1264,45146.529000,-36.291,20.398,248.931,-230.133,-106.792,421.181,3.780,-6.380,1.040
1265,45146.549000,-30.406,13.259,258.020,-231.892,-105.916,422.232,9.780,12.620,-0.960
1266,45146.569000,-38.253,22.438,254.990,-232.864,-106.775,426.234,-22.220,-11.380,3.040
1267,45146.592000,-33.349,20.398,251.961,-229.319,-108.529,423.137,1.780,2.620,4.040
1268,45146.609000,-36.291,19.378,254.990,-231.049,-108.526,423.192,27.780,18.620,-1.960
1269,45146.632000,-34.330,10.199,252.970,-233.760,-105.030,427.261,-4.220,-9.380,-3.960
1270,45146.649000,-33.349,12.239,257.010,-229.399,-109.391,426.118,-8.220,-3.380,-12.960
1271,45146.672000,-33.349,6.120,252.970,-232.950,-104.156,429.226,8.780,7.620,-22.960
1272,45146.697000,-32.368,12.239,257.010,-223.398,-107.655,427.922,3.780,-9.380,-22.960
1273,45146.714000,-32.368,5.100,252.970,-233.030,-105.018,432.207,0.780,-6.380,-22.960
1274,45146.739000,-31.387,2.040,253.980,-227.836,-105.897,432.041,15.780,3.620,-18.960
1275,45146.757000,-28.444,2.040,257.010,-229.537,-107.638,431.096,-3.220,-2.380,-15.960
1276,45146.774000,-36.291,4.080,251.961,-227.047,-109.372,434.987,-14.220,3.620,-31.960
1277,45146.789000,-28.444,0.000,256.000,-220.995,-105.901,434.808,22.780,-6.380,-34.960
1278,45146.824000,-30.406,-1.020,256.000,-228.805,-109.367,436.036,-2.220,2.620,-35.960
1279,45146.844000,-32.368,5.100,254.990,-230.537,-108.494,436.093,-7.220,-4.380,-31.960
1280,45146.864000,-29.425,-1.020,253.980,-227.936,-111.109,436.003,15.780,-3.380,-37.960
1281,45146.874000,-30.406,-5.100,258.020,-233.183,-111.095,438.155,-3.220,5.620,-48.960
1282,45146.894000,-26.483,-6.120,258.020,-226.238,-107.628,436.954,-2.220,-1.380,-42.960
1283,45146.914000,-31.387,1.020,254.990,-231.399,-110.233,436.115,15.780,0.620,-41.960
1284,45146.939000,-25.502,-8.159,256.000,-231.482,-109.355,439.101,1.780,0.620,-32.960
1285,45146.964000,-25.502,-10.199,259.030,-227.182,-109.359,439.959,-0.220,1.620,-32.960
1286,45146.984000,-29.425,-8.159,253.980,-233.289,-112.825,442.128,-5.220,3.620,-29.960
1287,45146.999000,-28.444,-2.040,258.020,-227.180,-111.100,439.954,-9.220,3.620,-31.960
1288,45147.25000,-29.425,-4.080,254.990,-231.532,-111.960,441.082,5.780,-1.380,-34.960
1289,45147.39000,-28.444,-2.040,257.010,-225.447,-111.973,439.897,6.780,-0.380,-36.960
1290,45147.59000,-27.464,-7.139,257.010,-228.933,-113.705,440.995,7.780,-1.380,-39.960
1291,45147.84000,-30.406,-6.120,254.990,-227.258,-112.833,442.932,0.780,1.620,-47.960
1292,45147.97000,-26.483,-1.020,258.020,-229.828,-111.961,442.022,4.780,-1.380,-53.960
1293,45147.117000,-30.406,0.000,253.980,-222.876,-113.715,440.805,15.780,-1.380,-48.960
1294,45147.157000,-28.444,2.040,257.010,-224.635,-112.839,441.857,3.780,2.620,-55.960
1295,45147.172000,-29.425,-3.060,253.980,-224.659,-114.577,442.846,7.780,-0.380,-45.960
1296,45147.186000,-28.444,-3.060,254.990,-228.145,-116.310,443.944,-5.220,2.620,-40.960
1297,45147.203000,-30.406,6.120,256.000,-228.989,-112.830,442.987,-10.220,3.620,-40.960
1298,45147.226000,-31.387,3.060,251.961,-225.548,-117.184,443.860,-1.220,-3.380,-27.960
1299,45147.241000,-32.368,12.239,258.020,-226.390,-114.575,442.900,2.780,6.620,-25.960
1300,45147.258000,-33.349,7.139,253.980,-228.146,-115.440,443.946,0.780,-4.380,-19.960
1301,45147.281000,-33.349,11.219,253.980,-228.986,-114.570,442.981,4.780,3.620,-23.960
1302,45147.306000,-31.387,6.120,256.000,-225.473,-112.841,440.889,5.780,-0.380,-20.960
1303,45147.328000,-33.349,8.159,252.970,-232.453,-111.084,443.100,1.780,4.620,-19.960
1304,45147.346000,-29.425,4.080,256.000,-225.580,-113.701,444.865,2.780,-5.380,-8.960
1305,45147.363000,-31.387,-3.060,254.990,-228.172,-116.307,444.938,8.780,5.620,-12.960
1306,45147.386000,-25.502,-12.239,256.000,-228.935,-112.835,440.998,14.780,-5.380,-9.960
1307,45147.408000,-23.540,-20.398,257.010,-229.933,-114.561,445.992,-3.220,0.620,3.040
1308,45147.428000,-37.272,11.219,254.990,-229.013,-114.568,443.976,-15.220,3.620,-8.960
1309,45147.445000,-28.444,5.100,253.980,-229.958,-115.429,446.984,16.780,-16.380,9.040
1310,45147.463000,-33.349,6.120,256.000,-228.199,-116.305,445.933,11.780,17.620,-6.960
1311,45147.482000,-28.444,7.139,257.010,-229.015,-113.698,443.979,6.780,-17.380,5.040
1312,45147.504000,-28.444,0.000,253.980,-230.748,-111.954,444.038,2.780,6.620,13.040
1313,45147.527000,-25.502,-5.100,258.020,-229.933,-114.561,445.992,-10.220,1.620,56.040
1314,45147.539000,-25.502,0.000,258.020,-222.958,-112.837,443.791,-1.220,-3.380,77.040
1315,45147.562000,-28.444,-9.179,254.990,-229.880,-113.696,444.006,-4.220,2.620,114.040
1316,45147.587000,-28.444,1.020,258.020,-232.507,-111.078,445.089,-27.220,4.620,129.040
1317,45147.622000,-30.406,-2.040,251.961,-227.312,-112.827,444.921,-9.220,-3.380,126.040
1318,45147.638000,-31.387,-4.080,254.990,-228.155,-110.218,443.962,-5.220,7.620,101.040
1319,45147.659000,-30.406,-3.060,256.000,-223.774,-110.230,441.837,0.780,-4.380,75.040
1320,45147.669000,-29.425,-8.159,254.990,-230.779,-109.340,445.040,-0.220,0.620,67.040
1321,45147.689000,-24.521,-10.199,256.000,-227.264,-109.351,442.943,1.780,-1.380,55.040
1322,45147.707000,-30.406,-8.159,254.990,-232.621,-107.587,449.078,-15.220,7.620,48.040
1323,45147.727000,-27.464,-6.120,254.990,-226.400,-108.482,442.918,-2.220,-0.380,50.040
1324,45147.749000,-28.444,-2.040,258.020,-231.591,-109.344,443.078,-5.220,3.620,43.040
1325,45147.769000,-32.368,-2.040,253.980,-231.569,-105.866,442.094,-13.220,-0.380,21.040
1326,45147.787000,-28.444,-5.100,259.030,-230.698,-109.348,442.057,-4.220,4.620,16.040
1327,45147.812000,-31.387,-6.120,256.000,-228.887,-108.489,439.022,-7.220,2.620,1.040
1328,45147.829000,-27.464,-8.159,256.000,-231.539,-107.609,441.095,6.780,0.620,1.040
1329,45147.852000,-27.464,-6.120,258.020,-230.619,-107.615,439.079,-8.220,5.620,-12.960
1330,45147.869000,-36.291,7.139,252.970,-228.833,-108.494,437.033,-8.220,5.620,-45.960
1331,45147.889000,-33.349,7.139,253.980,-233.184,-110.225,438.158,3.780,-1.380,-70.960
1332,45147.914000,-31.387,-14.279,257.010,-226.203,-112.852,435.944,31.780,-3.380,-77.960
1333,45147.932000,-24.521,-14.279,256.000,-234.864,-108.487,436.228,7.780,-3.380,-49.960
1334,45147.949000,-22.559,-16.319,258.020,-225.340,-111.113,435.922,2.780,-0.380,-7.960
1335,45147.969000,-28.444,-3.060,254.990,-230.482,-108.499,434.104,-7.220,4.620,8.040
1336,45147.999000,-29.425,8.159,254.990,-226.070,-111.125,430.977,7.780,0.620,-2.960
1337,45148.14000,-35.310,13.259,251.961,-231.268,-107.635,431.150,-7.220,6.620,-17.960
1338,45148.29000,-31.387,12.239,254.990,-226.885,-108.517,429.023,-2.220,-0.380,-18.960
1339,45148.59000,-31.387,9.179,254.990,-230.345,-109.382,429.129,5.780,1.620,9.040
1340,45148.64000,-30.406,12.239,253.980,-228.560,-109.390,427.086,-8.220,0.620,35.040
1341,45148.84000,-29.425,14.279,257.010,-230.345,-109.382,429.129,-19.220,2.620,60.040
1342,45148.107000,-33.349,13.259,251.961,-231.993,-110.257,426.197,-1.220,-0.380,73.040
1343,45148.127000,-32.368,19.378,256.000,-228.482,-107.657,424.107,-21.220,0.620,60.040
1344,45148.149000,-35.310,14.279,252.970,-230.240,-107.652,425.156,-4.220,-4.380,51.040
1345,45148.174000,-31.387,14.279,256.000,-228.458,-105.919,423.118,6.780,-0.380,58.040
1346,45148.192000,-31.387,14.279,256.000,-231.838,-105.921,420.243,-5.220,-1.380,72.040
1347,45148.214000,-32.368,16.319,256.000,-233.597,-105.046,421.294,-17.220,0.620,81.040
1348,45148.234000,-35.310,18.359,251.961,-225.837,-104.185,422.047,-8.220,-0.380,69.040
1349,45148.257000,-35.310,18.359,256.000,-230.135,-105.051,421.186,-9.220,4.620,50.040
1350,45148.282000,-39.234,19.378,250.951,-228.379,-104.186,420.140,0.780,-4.380,31.040
1351,45148.297000,-34.330,19.378,256.000,-233.598,-104.175,421.297,10.780,-0.380,26.040
1352,45148.319000,-35.310,16.319,252.970,-236.116,-102.438,418.400,-3.220,-2.380,40.040
1353,45148.334000,-32.368,10.199,252.970,-233.465,-102.448,416.330,-1.220,0.620,55.040
1354,45148.352000,-30.406,11.219,258.020,-235.195,-103.315,416.382,-5.220,1.620,61.040
1355,45148.374000,-30.406,5.100,253.980,-235.222,-103.312,417.376,-12.220,2.620,60.040
1356,45148.397000,-33.349,15.299,257.010,-235.279,-101.567,419.370,-12.220,-2.380,61.040
1357,45148.404000,-34.330,10.199,252.970,-230.901,-99.838,417.251,-9.220,3.620,51.040
1358,45148.444000,-34.330,12.239,253.980,-233.386,-101.585,413.349,1.780,5.620,53.040
1359,45148.471000,-32.368,12.239,258.020,-235.200,-99.834,416.392,-3.220,0.620,55.040
1360,45148.471000,-31.387,9.179,254.990,-233.434,-105.061,415.328,-17.220,4.620,56.040
1361,45148.501000,-31.387,14.279,256.000,-233.360,-100.717,412.357,-4.220,2.620,51.040
1362,45148.513000,-36.291,17.339,254.990,-232.494,-100.719,412.330,-12.220,3.620,30.040
1363,45148.538000,-35.310,21.418,254.990,-236.012,-99.838,414.430,-0.220,2.620,25.040
1364,45148.555000,-35.310,24.478,257.010,-233.468,-100.707,416.335,-3.220,4.620,21.040
1365,45148.578000,-38.253,27.538,250.951,-236.012,-99.838,414.430,-1.220,-0.380,19.040
1366,45148.596000,-36.291,24.478,256.000,-233.421,-96.360,414.359,3.780,2.620,9.040
1367,45148.621000,-31.387,2.040,252.970,-237.741,-100.705,414.482,30.780,-1.380,8.040
1368,45148.638000,-33.349,7.139,260.039,-234.307,-100.708,415.368,-14.220,6.620,-6.960
1369,45148.656000,-33.349,7.139,256.000,-230.841,-103.325,415.251,-26.220,-16.380,1.040
1370,45148.677000,-31.387,4.080,250.951,-237.667,-96.361,411.511,16.780,13.620,-1.960
1371,45148.699000,-31.387,10.199,256.000,-238.553,-99.839,412.523,6.780,-0.380,1.040
1372,45148.714000,-30.406,5.100,254.990,-238.633,-100.701,415.503,-12.220,-3.380,-1.960
1373,45148.729000,-31.387,7.139,256.000,-236.824,-98.971,412.471,-6.220,-5.380,-0.960
1374,45148.752000,-31.387,6.120,254.990,-235.170,-101.577,415.392,1.780,7.620,-6.960
1375,45148.782000,-40.215,27.538,254.990,-236.905,-98.963,415.454,-3.220,-5.380,-12.960
1376,45148.812000,-36.291,27.538,252.970,-237.714,-100.708,413.487,-13.220,-0.380,-34.960
1377,45148.832000,-41.195,37.737,251.961,-235.953,-102.454,412.433,29.780,15.620,-46.960
1378,45148.843000,-37.272,32.637,254.990,-236.010,-100.708,414.428,11.780,-5.380,-52.960
1379,45148.861000,-34.330,24.478,254.990,-231.731,-105.061,416.268,9.780,-3.380,-59.960
1380,45148.886000,-35.310,26.518,252.970,-236.060,-103.314,416.409,8.780,-9.380,-53.960
1381,45148.903000,-31.387,18.359,256.000,-232.600,-102.449,416.303,13.780,3.620,-59.960
1382,45148.918000,-33.349,15.299,253.980,-235.195,-103.315,416.382,7.780,-1.380,-53.960
1383,45148.941000,-31.387,16.319,256.000,-229.137,-103.325,416.192,-4.220,-4.380,-56.960
1384,45148.961000,-32.368,15.299,252.970,-236.139,-105.047,419.387,-1.220,-4.380,-46.960
1385,45148.981000,-33.349,21.418,254.990,-230.104,-107.665,420.184,4.780,3.620,-39.960
1386,45149.6000,-31.387,16.319,256.000,-233.491,-103.315,417.322,9.780,-0.380,-16.960
1387,45149.18000,-32.368,8.159,253.980,-230.974,-105.052,420.219,-15.220,5.620,-24.960
1388,45149.28000,-35.310,17.339,256.000,-228.430,-105.922,422.124,-6.220,-15.380,-24.960
